key_resp.keys,key_resp.rt,key_resp_2.keys,key_resp_2.rt,key_resp_3.keys,key_resp_3.rt,key_resp_4.keys,key_resp_4.rt,inputText,rt,pracassoc.thisRepN,pracassoc.thisTrialN,pracassoc.thisN,pracassoc.thisIndex,pracassoc.ran,participant,session,date,expName,psychopyVersion,OS,frameRate,study_id,key_resp_6.keys,key_resp_6.rt,Colour1,Ecc,assocresponse.thisRepN,assocresponse.thisTrialN,assocresponse.thisN,assocresponse.thisIndex,assocresponse.ran,key_resp_5.keys,key_resp_5.rt,trials.thisRepN,trials.thisTrialN,trials.thisN,trials.thisIndex,trials.ran
space,2.399,space,5.075,space,7.443,space,17.994, happy,7.834,0,0,0,0,1,596f003434773e0001fc0d28,614919e745f4e8db208e1610,2021-09-20_16h32.04.525,Colour_Association_Experimentv1,2020.2.10,MacIntel,60,614813970c3839c5bfc24e99,,,,,,,,,,,,,,,,
,,,,,,,,bright,1.917,1,0,1,0,1,596f003434773e0001fc0d28,614919e745f4e8db208e1610,2021-09-20_16h32.04.525,Colour_Association_Experimentv1,2020.2.10,MacIntel,60,614813970c3839c5bfc24e99,,,,,,,,,,,,,,,,
,,,,,,,,sunshine,2.118,2,0,2,0,1,596f003434773e0001fc0d28,614919e745f4e8db208e1610,2021-09-20_16h32.04.525,Colour_Association_Experimentv1,2020.2.10,MacIntel,60,614813970c3839c5bfc24e99,,,,,,,,,,,,,,,,
,,,,,,,,energy,4.488,3,0,3,0,1,596f003434773e0001fc0d28,614919e745f4e8db208e1610,2021-09-20_16h32.04.525,Colour_Association_Experimentv1,2020.2.10,MacIntel,60,614813970c3839c5bfc24e99,,,,,,,,,,,,,,,,
,,,,,,,,,9.092,4,0,4,0,1,596f003434773e0001fc0d28,614919e745f4e8db208e1610,2021-09-20_16h32.04.525,Colour_Association_Experimentv1,2020.2.10,MacIntel,60,614813970c3839c5bfc24e99,,,,,,,,,,,,,,,,
,,,,,,,, sky,5.57,,,,,,596f003434773e0001fc0d28,614919e745f4e8db208e1610,2021-09-20_16h32.04.525,Colour_Association_Experimentv1,2020.2.10,MacIntel,60,614813970c3839c5bfc24e99,space,0.007,7,FF,0,0,0,0,1,,,,,,,
,,,,,,,,clouds,1.469,,,,,,596f003434773e0001fc0d28,614919e745f4e8db208e1610,2021-09-20_16h32.04.525,Colour_Association_Experimentv1,2020.2.10,MacIntel,60,614813970c3839c5bfc24e99,,,,,1,0,1,0,1,,,,,,,
,,,,,,,,ocean,2.352,,,,,,596f003434773e0001fc0d28,614919e745f4e8db208e1610,2021-09-20_16h32.04.525,Colour_Association_Experimentv1,2020.2.10,MacIntel,60,614813970c3839c5bfc24e99,,,,,2,0,2,0,1,,,,,,,
,,,,,,,,sad,1.433,,,,,,596f003434773e0001fc0d28,614919e745f4e8db208e1610,2021-09-20_16h32.04.525,Colour_Association_Experimentv1,2020.2.10,MacIntel,60,614813970c3839c5bfc24e99,,,,,3,0,3,0,1,,,,,,,
,,,,,,,,depression,2.586,,,,,,596f003434773e0001fc0d28,614919e745f4e8db208e1610,2021-09-20_16h32.04.525,Colour_Association_Experimentv1,2020.2.10,MacIntel,60,614813970c3839c5bfc24e99,,,,,4,0,4,0,1,,,,,,,
,,,,,,,,water,3.486,,,,,,596f003434773e0001fc0d28,614919e745f4e8db208e1610,2021-09-20_16h32.04.525,Colour_Association_Experimentv1,2020.2.10,MacIntel,60,614813970c3839c5bfc24e99,,,,,5,0,5,0,1,,,,,,,
,,,,,,,,waves,3.336,,,,,,596f003434773e0001fc0d28,614919e745f4e8db208e1610,2021-09-20_16h32.04.525,Colour_Association_Experimentv1,2020.2.10,MacIntel,60,614813970c3839c5bfc24e99,,,,,6,0,6,0,1,,,,,,,
,,,,,,,,candy,8.175,,,,,,596f003434773e0001fc0d28,614919e745f4e8db208e1610,2021-09-20_16h32.04.525,Colour_Association_Experimentv1,2020.2.10,MacIntel,60,614813970c3839c5bfc24e99,,,,,7,0,7,0,1,,,,,,,
,,,,,,,,,2.434,,,,,,596f003434773e0001fc0d28,614919e745f4e8db208e1610,2021-09-20_16h32.04.525,Colour_Association_Experimentv1,2020.2.10,MacIntel,60,614813970c3839c5bfc24e99,,,,,8,0,8,0,1,,,,,,,
,,,,,,,,,,,,,,,596f003434773e0001fc0d28,614919e745f4e8db208e1610,2021-09-20_16h32.04.525,Colour_Association_Experimentv1,2020.2.10,MacIntel,60,614813970c3839c5bfc24e99,,,7,FF,,,,,,space,2.511,0,0,0,6,1
,,,,,,,, mediocre,11.161,,,,,,596f003434773e0001fc0d28,614919e745f4e8db208e1610,2021-09-20_16h32.04.525,Colour_Association_Experimentv1,2020.2.10,MacIntel,60,614813970c3839c5bfc24e99,,,2,PF,0,0,0,0,1,,,,,,,
,,,,,,,,bland,4.321,,,,,,596f003434773e0001fc0d28,614919e745f4e8db208e1610,2021-09-20_16h32.04.525,Colour_Association_Experimentv1,2020.2.10,MacIntel,60,614813970c3839c5bfc24e99,,,,,1,0,1,0,1,,,,,,,
,,,,,,,,halfway,5.504,,,,,,596f003434773e0001fc0d28,614919e745f4e8db208e1610,2021-09-20_16h32.04.525,Colour_Association_Experimentv1,2020.2.10,MacIntel,60,614813970c3839c5bfc24e99,,,,,2,0,2,0,1,,,,,,,
,,,,,,,,unsure,4.138,,,,,,596f003434773e0001fc0d28,614919e745f4e8db208e1610,2021-09-20_16h32.04.525,Colour_Association_Experimentv1,2020.2.10,MacIntel,60,614813970c3839c5bfc24e99,,,,,3,0,3,0,1,,,,,,,
,,,,,,,,boring,6.573,,,,,,596f003434773e0001fc0d28,614919e745f4e8db208e1610,2021-09-20_16h32.04.525,Colour_Association_Experimentv1,2020.2.10,MacIntel,60,614813970c3839c5bfc24e99,,,,,4,0,4,0,1,,,,,,,
,,,,,,,,,2.368,,,,,,596f003434773e0001fc0d28,614919e745f4e8db208e1610,2021-09-20_16h32.04.525,Colour_Association_Experimentv1,2020.2.10,MacIntel,60,614813970c3839c5bfc24e99,,,,,5,0,5,0,1,,,,,,,
,,,,,,,,,,,,,,,596f003434773e0001fc0d28,614919e745f4e8db208e1610,2021-09-20_16h32.04.525,Colour_Association_Experimentv1,2020.2.10,MacIntel,60,614813970c3839c5bfc24e99,,,2,PF,,,,,,space,0.435,0,1,1,1,1
,,,,,,,, grass,3.318,,,,,,596f003434773e0001fc0d28,614919e745f4e8db208e1610,2021-09-20_16h32.04.525,Colour_Association_Experimentv1,2020.2.10,MacIntel,60,614813970c3839c5bfc24e99,,,4,PF,0,0,0,0,1,,,,,,,
,,,,,,,,growing,4.12,,,,,,596f003434773e0001fc0d28,614919e745f4e8db208e1610,2021-09-20_16h32.04.525,Colour_Association_Experimentv1,2020.2.10,MacIntel,60,614813970c3839c5bfc24e99,,,,,1,0,1,0,1,,,,,,,
,,,,,,,,plants,4.004,,,,,,596f003434773e0001fc0d28,614919e745f4e8db208e1610,2021-09-20_16h32.04.525,Colour_Association_Experimentv1,2020.2.10,MacIntel,60,614813970c3839c5bfc24e99,,,,,2,0,2,0,1,,,,,,,
,,,,,,,,growth,1.535,,,,,,596f003434773e0001fc0d28,614919e745f4e8db208e1610,2021-09-20_16h32.04.525,Colour_Association_Experimentv1,2020.2.10,MacIntel,60,614813970c3839c5bfc24e99,,,,,3,0,3,0,1,,,,,,,
,,,,,,,,outdoors,2.918,,,,,,596f003434773e0001fc0d28,614919e745f4e8db208e1610,2021-09-20_16h32.04.525,Colour_Association_Experimentv1,2020.2.10,MacIntel,60,614813970c3839c5bfc24e99,,,,,4,0,4,0,1,,,,,,,
,,,,,,,,fresh,2.286,,,,,,596f003434773e0001fc0d28,614919e745f4e8db208e1610,2021-09-20_16h32.04.525,Colour_Association_Experimentv1,2020.2.10,MacIntel,60,614813970c3839c5bfc24e99,,,,,5,0,5,0,1,,,,,,,
,,,,,,,,nature,4.287,,,,,,596f003434773e0001fc0d28,614919e745f4e8db208e1610,2021-09-20_16h32.04.525,Colour_Association_Experimentv1,2020.2.10,MacIntel,60,614813970c3839c5bfc24e99,,,,,6,0,6,0,1,,,,,,,
,,,,,,,,,2.284,,,,,,596f003434773e0001fc0d28,614919e745f4e8db208e1610,2021-09-20_16h32.04.525,Colour_Association_Experimentv1,2020.2.10,MacIntel,60,614813970c3839c5bfc24e99,,,,,7,0,7,0,1,,,,,,,
,,,,,,,,,,,,,,,596f003434773e0001fc0d28,614919e745f4e8db208e1610,2021-09-20_16h32.04.525,Colour_Association_Experimentv1,2020.2.10,MacIntel,60,614813970c3839c5bfc24e99,,,4,PF,,,,,,space,1.02,0,2,2,3,1
,,,,,,,, balloon,10.294,,,,,,596f003434773e0001fc0d28,614919e745f4e8db208e1610,2021-09-20_16h32.04.525,Colour_Association_Experimentv1,2020.2.10,MacIntel,60,614813970c3839c5bfc24e99,,,5,FF,0,0,0,0,1,,,,,,,
,,,,,,,,ball,1.368,,,,,,596f003434773e0001fc0d28,614919e745f4e8db208e1610,2021-09-20_16h32.04.525,Colour_Association_Experimentv1,2020.2.10,MacIntel,60,614813970c3839c5bfc24e99,,,,,1,0,1,0,1,,,,,,,
,,,,,,,,play,1.617,,,,,,596f003434773e0001fc0d28,614919e745f4e8db208e1610,2021-09-20_16h32.04.525,Colour_Association_Experimentv1,2020.2.10,MacIntel,60,614813970c3839c5bfc24e99,,,,,2,0,2,0,1,,,,,,,
,,,,,,,,playground,4.488,,,,,,596f003434773e0001fc0d28,614919e745f4e8db208e1610,2021-09-20_16h32.04.525,Colour_Association_Experimentv1,2020.2.10,MacIntel,60,614813970c3839c5bfc24e99,,,,,3,0,3,0,1,,,,,,,
,,,,,,,,circus,2.453,,,,,,596f003434773e0001fc0d28,614919e745f4e8db208e1610,2021-09-20_16h32.04.525,Colour_Association_Experimentv1,2020.2.10,MacIntel,60,614813970c3839c5bfc24e99,,,,,4,0,4,0,1,,,,,,,
,,,,,,,,fun,1.451,,,,,,596f003434773e0001fc0d28,614919e745f4e8db208e1610,2021-09-20_16h32.04.525,Colour_Association_Experimentv1,2020.2.10,MacIntel,60,614813970c3839c5bfc24e99,,,,,5,0,5,0,1,,,,,,,
,,,,,,,,clown,1.201,,,,,,596f003434773e0001fc0d28,614919e745f4e8db208e1610,2021-09-20_16h32.04.525,Colour_Association_Experimentv1,2020.2.10,MacIntel,60,614813970c3839c5bfc24e99,,,,,6,0,6,0,1,,,,,,,
,,,,,,,,,4.003,,,,,,596f003434773e0001fc0d28,614919e745f4e8db208e1610,2021-09-20_16h32.04.525,Colour_Association_Experimentv1,2020.2.10,MacIntel,60,614813970c3839c5bfc24e99,,,,,7,0,7,0,1,,,,,,,
,,,,,,,,,,,,,,,596f003434773e0001fc0d28,614919e745f4e8db208e1610,2021-09-20_16h32.04.525,Colour_Association_Experimentv1,2020.2.10,MacIntel,60,614813970c3839c5bfc24e99,,,5,FF,,,,,,space,0.379,0,3,3,4,1
,,,,,,,, relax,2.667,,,,,,596f003434773e0001fc0d28,614919e745f4e8db208e1610,2021-09-20_16h32.04.525,Colour_Association_Experimentv1,2020.2.10,MacIntel,60,614813970c3839c5bfc24e99,,,6,PF,0,0,0,0,1,,,,,,,
,,,,,,,,unwind,3.753,,,,,,596f003434773e0001fc0d28,614919e745f4e8db208e1610,2021-09-20_16h32.04.525,Colour_Association_Experimentv1,2020.2.10,MacIntel,60,614813970c3839c5bfc24e99,,,,,1,0,1,0,1,,,,,,,
,,,,,,,,calm,1.218,,,,,,596f003434773e0001fc0d28,614919e745f4e8db208e1610,2021-09-20_16h32.04.525,Colour_Association_Experimentv1,2020.2.10,MacIntel,60,614813970c3839c5bfc24e99,,,,,2,0,2,0,1,,,,,,,
,,,,,,,,meditate,5.806,,,,,,596f003434773e0001fc0d28,614919e745f4e8db208e1610,2021-09-20_16h32.04.525,Colour_Association_Experimentv1,2020.2.10,MacIntel,60,614813970c3839c5bfc24e99,,,,,3,0,3,0,1,,,,,,,
,,,,,,,,breathe,5.355,,,,,,596f003434773e0001fc0d28,614919e745f4e8db208e1610,2021-09-20_16h32.04.525,Colour_Association_Experimentv1,2020.2.10,MacIntel,60,614813970c3839c5bfc24e99,,,,,4,0,4,0,1,,,,,,,
,,,,,,,,air,2.234,,,,,,596f003434773e0001fc0d28,614919e745f4e8db208e1610,2021-09-20_16h32.04.525,Colour_Association_Experimentv1,2020.2.10,MacIntel,60,614813970c3839c5bfc24e99,,,,,5,0,5,0,1,,,,,,,
,,,,,,,,,2.085,,,,,,596f003434773e0001fc0d28,614919e745f4e8db208e1610,2021-09-20_16h32.04.525,Colour_Association_Experimentv1,2020.2.10,MacIntel,60,614813970c3839c5bfc24e99,,,,,6,0,6,0,1,,,,,,,
,,,,,,,,,,,,,,,596f003434773e0001fc0d28,614919e745f4e8db208e1610,2021-09-20_16h32.04.525,Colour_Association_Experimentv1,2020.2.10,MacIntel,60,614813970c3839c5bfc24e99,,,6,PF,,,,,,space,0.07,0,4,4,5,1
,,,,,,,, fire,1.999,,,,,,596f003434773e0001fc0d28,614919e745f4e8db208e1610,2021-09-20_16h32.04.525,Colour_Association_Experimentv1,2020.2.10,MacIntel,60,614813970c3839c5bfc24e99,,,1,FF,0,0,0,0,1,,,,,,,
,,,,,,,,angry,1.586,,,,,,596f003434773e0001fc0d28,614919e745f4e8db208e1610,2021-09-20_16h32.04.525,Colour_Association_Experimentv1,2020.2.10,MacIntel,60,614813970c3839c5bfc24e99,,,,,1,0,1,0,1,,,,,,,
,,,,,,,,stop,1.367,,,,,,596f003434773e0001fc0d28,614919e745f4e8db208e1610,2021-09-20_16h32.04.525,Colour_Association_Experimentv1,2020.2.10,MacIntel,60,614813970c3839c5bfc24e99,,,,,2,0,2,0,1,,,,,,,
,,,,,,,,danger,4.722,,,,,,596f003434773e0001fc0d28,614919e745f4e8db208e1610,2021-09-20_16h32.04.525,Colour_Association_Experimentv1,2020.2.10,MacIntel,60,614813970c3839c5bfc24e99,,,,,3,0,3,0,1,,,,,,,
,,,,,,,,attention,3.52,,,,,,596f003434773e0001fc0d28,614919e745f4e8db208e1610,2021-09-20_16h32.04.525,Colour_Association_Experimentv1,2020.2.10,MacIntel,60,614813970c3839c5bfc24e99,,,,,4,0,4,0,1,,,,,,,
,,,,,,,,fire station,10.01,,,,,,596f003434773e0001fc0d28,614919e745f4e8db208e1610,2021-09-20_16h32.04.525,Colour_Association_Experimentv1,2020.2.10,MacIntel,60,614813970c3839c5bfc24e99,,,,,5,0,5,0,1,,,,,,,
,,,,,,,,flame,2.301,,,,,,596f003434773e0001fc0d28,614919e745f4e8db208e1610,2021-09-20_16h32.04.525,Colour_Association_Experimentv1,2020.2.10,MacIntel,60,614813970c3839c5bfc24e99,,,,,6,0,6,0,1,,,,,,,
,,,,,,,,lively,3.504,,,,,,596f003434773e0001fc0d28,614919e745f4e8db208e1610,2021-09-20_16h32.04.525,Colour_Association_Experimentv1,2020.2.10,MacIntel,60,614813970c3839c5bfc24e99,,,,,7,0,7,0,1,,,,,,,
,,,,,,,,,2.569,,,,,,596f003434773e0001fc0d28,614919e745f4e8db208e1610,2021-09-20_16h32.04.525,Colour_Association_Experimentv1,2020.2.10,MacIntel,60,614813970c3839c5bfc24e99,,,,,8,0,8,0,1,,,,,,,
,,,,,,,,,,,,,,,596f003434773e0001fc0d28,614919e745f4e8db208e1610,2021-09-20_16h32.04.525,Colour_Association_Experimentv1,2020.2.10,MacIntel,60,614813970c3839c5bfc24e99,,,1,FF,,,,,,space,0.147,0,5,5,0,1
,,,,,,,, gum,4.069,,,,,,596f003434773e0001fc0d28,614919e745f4e8db208e1610,2021-09-20_16h32.04.525,Colour_Association_Experimentv1,2020.2.10,MacIntel,60,614813970c3839c5bfc24e99,,,9,FF,0,0,0,0,1,,,,,,,
,,,,,,,,candy,1.851,,,,,,596f003434773e0001fc0d28,614919e745f4e8db208e1610,2021-09-20_16h32.04.525,Colour_Association_Experimentv1,2020.2.10,MacIntel,60,614813970c3839c5bfc24e99,,,,,1,0,1,0,1,,,,,,,
,,,,,,,,bubble gum,5.672,,,,,,596f003434773e0001fc0d28,614919e745f4e8db208e1610,2021-09-20_16h32.04.525,Colour_Association_Experimentv1,2020.2.10,MacIntel,60,614813970c3839c5bfc24e99,,,,,2,0,2,0,1,,,,,,,
,,,,,,,,fun,3.086,,,,,,596f003434773e0001fc0d28,614919e745f4e8db208e1610,2021-09-20_16h32.04.525,Colour_Association_Experimentv1,2020.2.10,MacIntel,60,614813970c3839c5bfc24e99,,,,,3,0,3,0,1,,,,,,,
,,,,,,,,circus,1.584,,,,,,596f003434773e0001fc0d28,614919e745f4e8db208e1610,2021-09-20_16h32.04.525,Colour_Association_Experimentv1,2020.2.10,MacIntel,60,614813970c3839c5bfc24e99,,,,,4,0,4,0,1,,,,,,,
,,,,,,,,costume,5.24,,,,,,596f003434773e0001fc0d28,614919e745f4e8db208e1610,2021-09-20_16h32.04.525,Colour_Association_Experimentv1,2020.2.10,MacIntel,60,614813970c3839c5bfc24e99,,,,,5,0,5,0,1,,,,,,,
,,,,,,,,acrobat,2.718,,,,,,596f003434773e0001fc0d28,614919e745f4e8db208e1610,2021-09-20_16h32.04.525,Colour_Association_Experimentv1,2020.2.10,MacIntel,60,614813970c3839c5bfc24e99,,,,,6,0,6,0,1,,,,,,,
,,,,,,,,ballet,2.369,,,,,,596f003434773e0001fc0d28,614919e745f4e8db208e1610,2021-09-20_16h32.04.525,Colour_Association_Experimentv1,2020.2.10,MacIntel,60,614813970c3839c5bfc24e99,,,,,7,0,7,0,1,,,,,,,
,,,,,,,,dance,1.751,,,,,,596f003434773e0001fc0d28,614919e745f4e8db208e1610,2021-09-20_16h32.04.525,Colour_Association_Experimentv1,2020.2.10,MacIntel,60,614813970c3839c5bfc24e99,,,,,8,0,8,0,1,,,,,,,
,,,,,,,,,1.735,,,,,,596f003434773e0001fc0d28,614919e745f4e8db208e1610,2021-09-20_16h32.04.525,Colour_Association_Experimentv1,2020.2.10,MacIntel,60,614813970c3839c5bfc24e99,,,,,9,0,9,0,1,,,,,,,
,,,,,,,,,,,,,,,596f003434773e0001fc0d28,614919e745f4e8db208e1610,2021-09-20_16h32.04.525,Colour_Association_Experimentv1,2020.2.10,MacIntel,60,614813970c3839c5bfc24e99,,,9,FF,,,,,,space,0.478,0,6,6,8,1
,,,,,,,, neon,3.084,,,,,,596f003434773e0001fc0d28,614919e745f4e8db208e1610,2021-09-20_16h32.04.525,Colour_Association_Experimentv1,2020.2.10,MacIntel,60,614813970c3839c5bfc24e99,,,3,FF,0,0,0,0,1,,,,,,,
,,,,,,,,bright,2.251,,,,,,596f003434773e0001fc0d28,614919e745f4e8db208e1610,2021-09-20_16h32.04.525,Colour_Association_Experimentv1,2020.2.10,MacIntel,60,614813970c3839c5bfc24e99,,,,,1,0,1,0,1,,,,,,,
,,,,,,,,loud,7.625,,,,,,596f003434773e0001fc0d28,614919e745f4e8db208e1610,2021-09-20_16h32.04.525,Colour_Association_Experimentv1,2020.2.10,MacIntel,60,614813970c3839c5bfc24e99,,,,,2,0,2,0,1,,,,,,,
,,,,,,,,attention,2.802,,,,,,596f003434773e0001fc0d28,614919e745f4e8db208e1610,2021-09-20_16h32.04.525,Colour_Association_Experimentv1,2020.2.10,MacIntel,60,614813970c3839c5bfc24e99,,,,,3,0,3,0,1,,,,,,,
,,,,,,,,stand back,3.721,,,,,,596f003434773e0001fc0d28,614919e745f4e8db208e1610,2021-09-20_16h32.04.525,Colour_Association_Experimentv1,2020.2.10,MacIntel,60,614813970c3839c5bfc24e99,,,,,4,0,4,0,1,,,,,,,
,,,,,,,,blinding,7.608,,,,,,596f003434773e0001fc0d28,614919e745f4e8db208e1610,2021-09-20_16h32.04.525,Colour_Association_Experimentv1,2020.2.10,MacIntel,60,614813970c3839c5bfc24e99,,,,,5,0,5,0,1,,,,,,,
,,,,,,,,,1.248,,,,,,596f003434773e0001fc0d28,614919e745f4e8db208e1610,2021-09-20_16h32.04.525,Colour_Association_Experimentv1,2020.2.10,MacIntel,60,614813970c3839c5bfc24e99,,,,,6,0,6,0,1,,,,,,,
,,,,,,,,,,,,,,,596f003434773e0001fc0d28,614919e745f4e8db208e1610,2021-09-20_16h32.04.525,Colour_Association_Experimentv1,2020.2.10,MacIntel,60,614813970c3839c5bfc24e99,,,3,FF,,,,,,space,0.194,0,7,7,2,1
,,,,,,,, favourite colour,6.839,,,,,,596f003434773e0001fc0d28,614919e745f4e8db208e1610,2021-09-20_16h32.04.525,Colour_Association_Experimentv1,2020.2.10,MacIntel,60,614813970c3839c5bfc24e99,,,8,PF,0,0,0,0,1,,,,,,,
,,,,,,,,happy,4.488,,,,,,596f003434773e0001fc0d28,614919e745f4e8db208e1610,2021-09-20_16h32.04.525,Colour_Association_Experimentv1,2020.2.10,MacIntel,60,614813970c3839c5bfc24e99,,,,,1,0,1,0,1,,,,,,,
,,,,,,,,flower,17.118,,,,,,596f003434773e0001fc0d28,614919e745f4e8db208e1610,2021-09-20_16h32.04.525,Colour_Association_Experimentv1,2020.2.10,MacIntel,60,614813970c3839c5bfc24e99,,,,,2,0,2,0,1,,,,,,,
,,,,,,,,comfortable ,10.227,,,,,,596f003434773e0001fc0d28,614919e745f4e8db208e1610,2021-09-20_16h32.04.525,Colour_Association_Experimentv1,2020.2.10,MacIntel,60,614813970c3839c5bfc24e99,,,,,3,0,3,0,1,,,,,,,
,,,,,,,,,1.585,,,,,,596f003434773e0001fc0d28,614919e745f4e8db208e1610,2021-09-20_16h32.04.525,Colour_Association_Experimentv1,2020.2.10,MacIntel,60,614813970c3839c5bfc24e99,,,,,4,0,4,0,1,,,,,,,
,,,,,,,,,,,,,,,596f003434773e0001fc0d28,614919e745f4e8db208e1610,2021-09-20_16h32.04.525,Colour_Association_Experimentv1,2020.2.10,MacIntel,60,614813970c3839c5bfc24e99,,,8,PF,,,,,,,,0,8,8,7,1
