key_resp.keys,key_resp.rt,key_resp_2.keys,key_resp_2.rt,key_resp_3.keys,key_resp_3.rt,key_resp_4.keys,key_resp_4.rt,inputText,rt,pracassoc.thisRepN,pracassoc.thisTrialN,pracassoc.thisN,pracassoc.thisIndex,pracassoc.ran,participant,session,date,expName,psychopyVersion,OS,frameRate,study_id,key_resp_6.keys,key_resp_6.rt,Colour1,Ecc,assocresponse.thisRepN,assocresponse.thisTrialN,assocresponse.thisN,assocresponse.thisIndex,assocresponse.ran,key_resp_5.keys,key_resp_5.rt,trials.thisRepN,trials.thisTrialN,trials.thisN,trials.thisIndex,trials.ran
space,3.7034,space,6.276,space,6.4673,space,9.3904, sun,5.2773,0,0,0,0,1,5ed6866f9c98550b6a7c10dc,614815add628f6f80906bf22,2021-09-20_01h01.54.505,Colour_Association_Experimentv1,2020.2.10,MacIntel,60,614813970c3839c5bfc24e99,,,,,,,,,,,,,,,,
,,,,,,,,happy,2.8829,1,0,1,0,1,5ed6866f9c98550b6a7c10dc,614815add628f6f80906bf22,2021-09-20_01h01.54.505,Colour_Association_Experimentv1,2020.2.10,MacIntel,60,614813970c3839c5bfc24e99,,,,,,,,,,,,,,,,
,,,,,,,,light,1.2151,2,0,2,0,1,5ed6866f9c98550b6a7c10dc,614815add628f6f80906bf22,2021-09-20_01h01.54.505,Colour_Association_Experimentv1,2020.2.10,MacIntel,60,614813970c3839c5bfc24e99,,,,,,,,,,,,,,,,
,,,,,,,,bright,2.7835,3,0,3,0,1,5ed6866f9c98550b6a7c10dc,614815add628f6f80906bf22,2021-09-20_01h01.54.505,Colour_Association_Experimentv1,2020.2.10,MacIntel,60,614813970c3839c5bfc24e99,,,,,,,,,,,,,,,,
,,,,,,,,summer,1.5646,4,0,4,0,1,5ed6866f9c98550b6a7c10dc,614815add628f6f80906bf22,2021-09-20_01h01.54.505,Colour_Association_Experimentv1,2020.2.10,MacIntel,60,614813970c3839c5bfc24e99,,,,,,,,,,,,,,,,
,,,,,,,,gold,3.4324,5,0,5,0,1,5ed6866f9c98550b6a7c10dc,614815add628f6f80906bf22,2021-09-20_01h01.54.505,Colour_Association_Experimentv1,2020.2.10,MacIntel,60,614813970c3839c5bfc24e99,,,,,,,,,,,,,,,,
,,,,,,,,,4.5683,6,0,6,0,1,5ed6866f9c98550b6a7c10dc,614815add628f6f80906bf22,2021-09-20_01h01.54.505,Colour_Association_Experimentv1,2020.2.10,MacIntel,60,614813970c3839c5bfc24e99,,,,,,,,,,,,,,,,
,,,,,,,, girly,4.2479,,,,,,5ed6866f9c98550b6a7c10dc,614815add628f6f80906bf22,2021-09-20_01h01.54.505,Colour_Association_Experimentv1,2020.2.10,MacIntel,60,614813970c3839c5bfc24e99,space,0.4508,8,PF,0,0,0,0,1,,,,,,,
,,,,,,,,fushia,5.1667,,,,,,5ed6866f9c98550b6a7c10dc,614815add628f6f80906bf22,2021-09-20_01h01.54.505,Colour_Association_Experimentv1,2020.2.10,MacIntel,60,614813970c3839c5bfc24e99,,,,,1,0,1,0,1,,,,,,,
,,,,,,,,flower,2.4992,,,,,,5ed6866f9c98550b6a7c10dc,614815add628f6f80906bf22,2021-09-20_01h01.54.505,Colour_Association_Experimentv1,2020.2.10,MacIntel,60,614813970c3839c5bfc24e99,,,,,2,0,2,0,1,,,,,,,
,,,,,,,,bright,1.5659,,,,,,5ed6866f9c98550b6a7c10dc,614815add628f6f80906bf22,2021-09-20_01h01.54.505,Colour_Association_Experimentv1,2020.2.10,MacIntel,60,614813970c3839c5bfc24e99,,,,,3,0,3,0,1,,,,,,,
,,,,,,,,obnoxious,4.1677,,,,,,5ed6866f9c98550b6a7c10dc,614815add628f6f80906bf22,2021-09-20_01h01.54.505,Colour_Association_Experimentv1,2020.2.10,MacIntel,60,614813970c3839c5bfc24e99,,,,,4,0,4,0,1,,,,,,,
,,,,,,,,loud,2.533,,,,,,5ed6866f9c98550b6a7c10dc,614815add628f6f80906bf22,2021-09-20_01h01.54.505,Colour_Association_Experimentv1,2020.2.10,MacIntel,60,614813970c3839c5bfc24e99,,,,,5,0,5,0,1,,,,,,,
,,,,,,,,talkative,2.7498,,,,,,5ed6866f9c98550b6a7c10dc,614815add628f6f80906bf22,2021-09-20_01h01.54.505,Colour_Association_Experimentv1,2020.2.10,MacIntel,60,614813970c3839c5bfc24e99,,,,,6,0,6,0,1,,,,,,,
,,,,,,,,intense,3.0676,,,,,,5ed6866f9c98550b6a7c10dc,614815add628f6f80906bf22,2021-09-20_01h01.54.505,Colour_Association_Experimentv1,2020.2.10,MacIntel,60,614813970c3839c5bfc24e99,,,,,7,0,7,0,1,,,,,,,
,,,,,,,,,1.8164,,,,,,5ed6866f9c98550b6a7c10dc,614815add628f6f80906bf22,2021-09-20_01h01.54.505,Colour_Association_Experimentv1,2020.2.10,MacIntel,60,614813970c3839c5bfc24e99,,,,,8,0,8,0,1,,,,,,,
,,,,,,,,,,,,,,,5ed6866f9c98550b6a7c10dc,614815add628f6f80906bf22,2021-09-20_01h01.54.505,Colour_Association_Experimentv1,2020.2.10,MacIntel,60,614813970c3839c5bfc24e99,,,8,PF,,,,,,space,2.27,0,0,0,7,1
,,,,,,,, basic,2.6811,,,,,,5ed6866f9c98550b6a7c10dc,614815add628f6f80906bf22,2021-09-20_01h01.54.505,Colour_Association_Experimentv1,2020.2.10,MacIntel,60,614813970c3839c5bfc24e99,,,7,FF,0,0,0,0,1,,,,,,,
,,,,,,,,water,2.1824,,,,,,5ed6866f9c98550b6a7c10dc,614815add628f6f80906bf22,2021-09-20_01h01.54.505,Colour_Association_Experimentv1,2020.2.10,MacIntel,60,614813970c3839c5bfc24e99,,,,,1,0,1,0,1,,,,,,,
,,,,,,,,boy,1.7326,,,,,,5ed6866f9c98550b6a7c10dc,614815add628f6f80906bf22,2021-09-20_01h01.54.505,Colour_Association_Experimentv1,2020.2.10,MacIntel,60,614813970c3839c5bfc24e99,,,,,2,0,2,0,1,,,,,,,
,,,,,,,,games,2.5017,,,,,,5ed6866f9c98550b6a7c10dc,614815add628f6f80906bf22,2021-09-20_01h01.54.505,Colour_Association_Experimentv1,2020.2.10,MacIntel,60,614813970c3839c5bfc24e99,,,,,3,0,3,0,1,,,,,,,
,,,,,,,,boardgames,3.2339,,,,,,5ed6866f9c98550b6a7c10dc,614815add628f6f80906bf22,2021-09-20_01h01.54.505,Colour_Association_Experimentv1,2020.2.10,MacIntel,60,614813970c3839c5bfc24e99,,,,,4,0,4,0,1,,,,,,,
,,,,,,,,calming,5.2179,,,,,,5ed6866f9c98550b6a7c10dc,614815add628f6f80906bf22,2021-09-20_01h01.54.505,Colour_Association_Experimentv1,2020.2.10,MacIntel,60,614813970c3839c5bfc24e99,,,,,5,0,5,0,1,,,,,,,
,,,,,,,,rich,1.7643,,,,,,5ed6866f9c98550b6a7c10dc,614815add628f6f80906bf22,2021-09-20_01h01.54.505,Colour_Association_Experimentv1,2020.2.10,MacIntel,60,614813970c3839c5bfc24e99,,,,,6,0,6,0,1,,,,,,,
,,,,,,,,deep,1.4168,,,,,,5ed6866f9c98550b6a7c10dc,614815add628f6f80906bf22,2021-09-20_01h01.54.505,Colour_Association_Experimentv1,2020.2.10,MacIntel,60,614813970c3839c5bfc24e99,,,,,7,0,7,0,1,,,,,,,
,,,,,,,,,4.3848,,,,,,5ed6866f9c98550b6a7c10dc,614815add628f6f80906bf22,2021-09-20_01h01.54.505,Colour_Association_Experimentv1,2020.2.10,MacIntel,60,614813970c3839c5bfc24e99,,,,,8,0,8,0,1,,,,,,,
,,,,,,,,,,,,,,,5ed6866f9c98550b6a7c10dc,614815add628f6f80906bf22,2021-09-20_01h01.54.505,Colour_Association_Experimentv1,2020.2.10,MacIntel,60,614813970c3839c5bfc24e99,,,7,FF,,,,,,space,0.8317,0,1,1,6,1
,,,,,,,, aliens,6.1516,,,,,,5ed6866f9c98550b6a7c10dc,614815add628f6f80906bf22,2021-09-20_01h01.54.505,Colour_Association_Experimentv1,2020.2.10,MacIntel,60,614813970c3839c5bfc24e99,,,4,PF,0,0,0,0,1,,,,,,,
,,,,,,,,grass,3.7995,,,,,,5ed6866f9c98550b6a7c10dc,614815add628f6f80906bf22,2021-09-20_01h01.54.505,Colour_Association_Experimentv1,2020.2.10,MacIntel,60,614813970c3839c5bfc24e99,,,,,1,0,1,0,1,,,,,,,
,,,,,,,,lime,1.3154,,,,,,5ed6866f9c98550b6a7c10dc,614815add628f6f80906bf22,2021-09-20_01h01.54.505,Colour_Association_Experimentv1,2020.2.10,MacIntel,60,614813970c3839c5bfc24e99,,,,,2,0,2,0,1,,,,,,,
,,,,,,,,bright,4.3848,,,,,,5ed6866f9c98550b6a7c10dc,614815add628f6f80906bf22,2021-09-20_01h01.54.505,Colour_Association_Experimentv1,2020.2.10,MacIntel,60,614813970c3839c5bfc24e99,,,,,3,0,3,0,1,,,,,,,
,,,,,,,,fun,1.2498,,,,,,5ed6866f9c98550b6a7c10dc,614815add628f6f80906bf22,2021-09-20_01h01.54.505,Colour_Association_Experimentv1,2020.2.10,MacIntel,60,614813970c3839c5bfc24e99,,,,,4,0,4,0,1,,,,,,,
,,,,,,,,childish,3.1668,,,,,,5ed6866f9c98550b6a7c10dc,614815add628f6f80906bf22,2021-09-20_01h01.54.505,Colour_Association_Experimentv1,2020.2.10,MacIntel,60,614813970c3839c5bfc24e99,,,,,5,0,5,0,1,,,,,,,
,,,,,,,,plants,4.5668,,,,,,5ed6866f9c98550b6a7c10dc,614815add628f6f80906bf22,2021-09-20_01h01.54.505,Colour_Association_Experimentv1,2020.2.10,MacIntel,60,614813970c3839c5bfc24e99,,,,,6,0,6,0,1,,,,,,,
,,,,,,,,nature,1.2658,,,,,,5ed6866f9c98550b6a7c10dc,614815add628f6f80906bf22,2021-09-20_01h01.54.505,Colour_Association_Experimentv1,2020.2.10,MacIntel,60,614813970c3839c5bfc24e99,,,,,7,0,7,0,1,,,,,,,
,,,,,,,,life,0.7492,,,,,,5ed6866f9c98550b6a7c10dc,614815add628f6f80906bf22,2021-09-20_01h01.54.505,Colour_Association_Experimentv1,2020.2.10,MacIntel,60,614813970c3839c5bfc24e99,,,,,8,0,8,0,1,,,,,,,
,,,,,,,,,5.2524,,,,,,5ed6866f9c98550b6a7c10dc,614815add628f6f80906bf22,2021-09-20_01h01.54.505,Colour_Association_Experimentv1,2020.2.10,MacIntel,60,614813970c3839c5bfc24e99,,,,,9,0,9,0,1,,,,,,,
,,,,,,,,,,,,,,,5ed6866f9c98550b6a7c10dc,614815add628f6f80906bf22,2021-09-20_01h01.54.505,Colour_Association_Experimentv1,2020.2.10,MacIntel,60,614813970c3839c5bfc24e99,,,4,PF,,,,,,space,0.1518,0,2,2,3,1
,,,,,,,, soft,3.5166,,,,,,5ed6866f9c98550b6a7c10dc,614815add628f6f80906bf22,2021-09-20_01h01.54.505,Colour_Association_Experimentv1,2020.2.10,MacIntel,60,614813970c3839c5bfc24e99,,,3,FF,0,0,0,0,1,,,,,,,
,,,,,,,,gentle,2.4157,,,,,,5ed6866f9c98550b6a7c10dc,614815add628f6f80906bf22,2021-09-20_01h01.54.505,Colour_Association_Experimentv1,2020.2.10,MacIntel,60,614813970c3839c5bfc24e99,,,,,1,0,1,0,1,,,,,,,
,,,,,,,,baby,1.6993,,,,,,5ed6866f9c98550b6a7c10dc,614815add628f6f80906bf22,2021-09-20_01h01.54.505,Colour_Association_Experimentv1,2020.2.10,MacIntel,60,614813970c3839c5bfc24e99,,,,,2,0,2,0,1,,,,,,,
,,,,,,,,neutral,3.183,,,,,,5ed6866f9c98550b6a7c10dc,614815add628f6f80906bf22,2021-09-20_01h01.54.505,Colour_Association_Experimentv1,2020.2.10,MacIntel,60,614813970c3839c5bfc24e99,,,,,3,0,3,0,1,,,,,,,
,,,,,,,,loving,3.4178,,,,,,5ed6866f9c98550b6a7c10dc,614815add628f6f80906bf22,2021-09-20_01h01.54.505,Colour_Association_Experimentv1,2020.2.10,MacIntel,60,614813970c3839c5bfc24e99,,,,,4,0,4,0,1,,,,,,,
,,,,,,,,caring,0.9149,,,,,,5ed6866f9c98550b6a7c10dc,614815add628f6f80906bf22,2021-09-20_01h01.54.505,Colour_Association_Experimentv1,2020.2.10,MacIntel,60,614813970c3839c5bfc24e99,,,,,5,0,5,0,1,,,,,,,
,,,,,,,,small,9.4877,,,,,,5ed6866f9c98550b6a7c10dc,614815add628f6f80906bf22,2021-09-20_01h01.54.505,Colour_Association_Experimentv1,2020.2.10,MacIntel,60,614813970c3839c5bfc24e99,,,,,6,0,6,0,1,,,,,,,
,,,,,,,,,1.8142,,,,,,5ed6866f9c98550b6a7c10dc,614815add628f6f80906bf22,2021-09-20_01h01.54.505,Colour_Association_Experimentv1,2020.2.10,MacIntel,60,614813970c3839c5bfc24e99,,,,,7,0,7,0,1,,,,,,,
,,,,,,,,,,,,,,,5ed6866f9c98550b6a7c10dc,614815add628f6f80906bf22,2021-09-20_01h01.54.505,Colour_Association_Experimentv1,2020.2.10,MacIntel,60,614813970c3839c5bfc24e99,,,3,FF,,,,,,space,0.0353,0,3,3,2,1
,,,,,,,, water,5.1679,,,,,,5ed6866f9c98550b6a7c10dc,614815add628f6f80906bf22,2021-09-20_01h01.54.505,Colour_Association_Experimentv1,2020.2.10,MacIntel,60,614813970c3839c5bfc24e99,,,5,FF,0,0,0,0,1,,,,,,,
,,,,,,,,bottles,1.8316,,,,,,5ed6866f9c98550b6a7c10dc,614815add628f6f80906bf22,2021-09-20_01h01.54.505,Colour_Association_Experimentv1,2020.2.10,MacIntel,60,614813970c3839c5bfc24e99,,,,,1,0,1,0,1,,,,,,,
,,,,,,,,march,9.5529,,,,,,5ed6866f9c98550b6a7c10dc,614815add628f6f80906bf22,2021-09-20_01h01.54.505,Colour_Association_Experimentv1,2020.2.10,MacIntel,60,614813970c3839c5bfc24e99,,,,,2,0,2,0,1,,,,,,,
,,,,,,,,fish,3.5662,,,,,,5ed6866f9c98550b6a7c10dc,614815add628f6f80906bf22,2021-09-20_01h01.54.505,Colour_Association_Experimentv1,2020.2.10,MacIntel,60,614813970c3839c5bfc24e99,,,,,3,0,3,0,1,,,,,,,
,,,,,,,,gem,7.5367,,,,,,5ed6866f9c98550b6a7c10dc,614815add628f6f80906bf22,2021-09-20_01h01.54.505,Colour_Association_Experimentv1,2020.2.10,MacIntel,60,614813970c3839c5bfc24e99,,,,,4,0,4,0,1,,,,,,,
,,,,,,,,,3.1495,,,,,,5ed6866f9c98550b6a7c10dc,614815add628f6f80906bf22,2021-09-20_01h01.54.505,Colour_Association_Experimentv1,2020.2.10,MacIntel,60,614813970c3839c5bfc24e99,,,,,5,0,5,0,1,,,,,,,
,,,,,,,,,,,,,,,5ed6866f9c98550b6a7c10dc,614815add628f6f80906bf22,2021-09-20_01h01.54.505,Colour_Association_Experimentv1,2020.2.10,MacIntel,60,614813970c3839c5bfc24e99,,,5,FF,,,,,,space,0.2674,0,4,4,4,1
,,,,,,,, fun,4.4651,,,,,,5ed6866f9c98550b6a7c10dc,614815add628f6f80906bf22,2021-09-20_01h01.54.505,Colour_Association_Experimentv1,2020.2.10,MacIntel,60,614813970c3839c5bfc24e99,,,1,FF,0,0,0,0,1,,,,,,,
,,,,,,,,bright,1.2829,,,,,,5ed6866f9c98550b6a7c10dc,614815add628f6f80906bf22,2021-09-20_01h01.54.505,Colour_Association_Experimentv1,2020.2.10,MacIntel,60,614813970c3839c5bfc24e99,,,,,1,0,1,0,1,,,,,,,
,,,,,,,,unique,3.9001,,,,,,5ed6866f9c98550b6a7c10dc,614815add628f6f80906bf22,2021-09-20_01h01.54.505,Colour_Association_Experimentv1,2020.2.10,MacIntel,60,614813970c3839c5bfc24e99,,,,,2,0,2,0,1,,,,,,,
,,,,,,,,twisty,6.9687,,,,,,5ed6866f9c98550b6a7c10dc,614815add628f6f80906bf22,2021-09-20_01h01.54.505,Colour_Association_Experimentv1,2020.2.10,MacIntel,60,614813970c3839c5bfc24e99,,,,,3,0,3,0,1,,,,,,,
,,,,,,,,jump,5.6832,,,,,,5ed6866f9c98550b6a7c10dc,614815add628f6f80906bf22,2021-09-20_01h01.54.505,Colour_Association_Experimentv1,2020.2.10,MacIntel,60,614813970c3839c5bfc24e99,,,,,4,0,4,0,1,,,,,,,
,,,,,,,,warm,6.9003,,,,,,5ed6866f9c98550b6a7c10dc,614815add628f6f80906bf22,2021-09-20_01h01.54.505,Colour_Association_Experimentv1,2020.2.10,MacIntel,60,614813970c3839c5bfc24e99,,,,,5,0,5,0,1,,,,,,,
,,,,,,,,,2.0005,,,,,,5ed6866f9c98550b6a7c10dc,614815add628f6f80906bf22,2021-09-20_01h01.54.505,Colour_Association_Experimentv1,2020.2.10,MacIntel,60,614813970c3839c5bfc24e99,,,,,6,0,6,0,1,,,,,,,
,,,,,,,,,,,,,,,5ed6866f9c98550b6a7c10dc,614815add628f6f80906bf22,2021-09-20_01h01.54.505,Colour_Association_Experimentv1,2020.2.10,MacIntel,60,614813970c3839c5bfc24e99,,,1,FF,,,,,,space,0.6365,0,5,5,0,1
,,,,,,,, sky,6.1994,,,,,,5ed6866f9c98550b6a7c10dc,614815add628f6f80906bf22,2021-09-20_01h01.54.505,Colour_Association_Experimentv1,2020.2.10,MacIntel,60,614813970c3839c5bfc24e99,,,6,PF,0,0,0,0,1,,,,,,,
,,,,,,,,strong,7.1036,,,,,,5ed6866f9c98550b6a7c10dc,614815add628f6f80906bf22,2021-09-20_01h01.54.505,Colour_Association_Experimentv1,2020.2.10,MacIntel,60,614813970c3839c5bfc24e99,,,,,1,0,1,0,1,,,,,,,
,,,,,,,,water,6.0342,,,,,,5ed6866f9c98550b6a7c10dc,614815add628f6f80906bf22,2021-09-20_01h01.54.505,Colour_Association_Experimentv1,2020.2.10,MacIntel,60,614813970c3839c5bfc24e99,,,,,2,0,2,0,1,,,,,,,
,,,,,,,,air,3.9495,,,,,,5ed6866f9c98550b6a7c10dc,614815add628f6f80906bf22,2021-09-20_01h01.54.505,Colour_Association_Experimentv1,2020.2.10,MacIntel,60,614813970c3839c5bfc24e99,,,,,3,0,3,0,1,,,,,,,
,,,,,,,,large,7.0852,,,,,,5ed6866f9c98550b6a7c10dc,614815add628f6f80906bf22,2021-09-20_01h01.54.505,Colour_Association_Experimentv1,2020.2.10,MacIntel,60,614813970c3839c5bfc24e99,,,,,4,0,4,0,1,,,,,,,
,,,,,,,,breath,3.7658,,,,,,5ed6866f9c98550b6a7c10dc,614815add628f6f80906bf22,2021-09-20_01h01.54.505,Colour_Association_Experimentv1,2020.2.10,MacIntel,60,614813970c3839c5bfc24e99,,,,,5,0,5,0,1,,,,,,,
,,,,,,,,,2.4828,,,,,,5ed6866f9c98550b6a7c10dc,614815add628f6f80906bf22,2021-09-20_01h01.54.505,Colour_Association_Experimentv1,2020.2.10,MacIntel,60,614813970c3839c5bfc24e99,,,,,6,0,6,0,1,,,,,,,
,,,,,,,,,,,,,,,5ed6866f9c98550b6a7c10dc,614815add628f6f80906bf22,2021-09-20_01h01.54.505,Colour_Association_Experimentv1,2020.2.10,MacIntel,60,614813970c3839c5bfc24e99,,,6,PF,,,,,,space,0.5569,0,6,6,5,1
,,,,,,,, pink,5.9836,,,,,,5ed6866f9c98550b6a7c10dc,614815add628f6f80906bf22,2021-09-20_01h01.54.505,Colour_Association_Experimentv1,2020.2.10,MacIntel,60,614813970c3839c5bfc24e99,,,9,FF,0,0,0,0,1,,,,,,,
,,,,,,,,basic,3.3671,,,,,,5ed6866f9c98550b6a7c10dc,614815add628f6f80906bf22,2021-09-20_01h01.54.505,Colour_Association_Experimentv1,2020.2.10,MacIntel,60,614813970c3839c5bfc24e99,,,,,1,0,1,0,1,,,,,,,
,,,,,,,,straightforward,9.3189,,,,,,5ed6866f9c98550b6a7c10dc,614815add628f6f80906bf22,2021-09-20_01h01.54.505,Colour_Association_Experimentv1,2020.2.10,MacIntel,60,614813970c3839c5bfc24e99,,,,,2,0,2,0,1,,,,,,,
,,,,,,,,small,2.0335,,,,,,5ed6866f9c98550b6a7c10dc,614815add628f6f80906bf22,2021-09-20_01h01.54.505,Colour_Association_Experimentv1,2020.2.10,MacIntel,60,614813970c3839c5bfc24e99,,,,,3,0,3,0,1,,,,,,,
,,,,,,,,bubblegum,7.2528,,,,,,5ed6866f9c98550b6a7c10dc,614815add628f6f80906bf22,2021-09-20_01h01.54.505,Colour_Association_Experimentv1,2020.2.10,MacIntel,60,614813970c3839c5bfc24e99,,,,,4,0,4,0,1,,,,,,,
,,,,,,,,kids,4.2335,,,,,,5ed6866f9c98550b6a7c10dc,614815add628f6f80906bf22,2021-09-20_01h01.54.505,Colour_Association_Experimentv1,2020.2.10,MacIntel,60,614813970c3839c5bfc24e99,,,,,5,0,5,0,1,,,,,,,
,,,,,,,,,1.6988,,,,,,5ed6866f9c98550b6a7c10dc,614815add628f6f80906bf22,2021-09-20_01h01.54.505,Colour_Association_Experimentv1,2020.2.10,MacIntel,60,614813970c3839c5bfc24e99,,,,,6,0,6,0,1,,,,,,,
,,,,,,,,,,,,,,,5ed6866f9c98550b6a7c10dc,614815add628f6f80906bf22,2021-09-20_01h01.54.505,Colour_Association_Experimentv1,2020.2.10,MacIntel,60,614813970c3839c5bfc24e99,,,9,FF,,,,,,space,2.1857,0,7,7,8,1
,,,,,,,, orange,4.2325,,,,,,5ed6866f9c98550b6a7c10dc,614815add628f6f80906bf22,2021-09-20_01h01.54.505,Colour_Association_Experimentv1,2020.2.10,MacIntel,60,614813970c3839c5bfc24e99,,,2,PF,0,0,0,0,1,,,,,,,
,,,,,,,,apple,1.4822,,,,,,5ed6866f9c98550b6a7c10dc,614815add628f6f80906bf22,2021-09-20_01h01.54.505,Colour_Association_Experimentv1,2020.2.10,MacIntel,60,614813970c3839c5bfc24e99,,,,,1,0,1,0,1,,,,,,,
,,,,,,,,fruity,1.2816,,,,,,5ed6866f9c98550b6a7c10dc,614815add628f6f80906bf22,2021-09-20_01h01.54.505,Colour_Association_Experimentv1,2020.2.10,MacIntel,60,614813970c3839c5bfc24e99,,,,,2,0,2,0,1,,,,,,,
,,,,,,,,flavor,2.6007,,,,,,5ed6866f9c98550b6a7c10dc,614815add628f6f80906bf22,2021-09-20_01h01.54.505,Colour_Association_Experimentv1,2020.2.10,MacIntel,60,614813970c3839c5bfc24e99,,,,,3,0,3,0,1,,,,,,,
,,,,,,,,fun,1.983,,,,,,5ed6866f9c98550b6a7c10dc,614815add628f6f80906bf22,2021-09-20_01h01.54.505,Colour_Association_Experimentv1,2020.2.10,MacIntel,60,614813970c3839c5bfc24e99,,,,,4,0,4,0,1,,,,,,,
,,,,,,,,sunshine,2.4825,,,,,,5ed6866f9c98550b6a7c10dc,614815add628f6f80906bf22,2021-09-20_01h01.54.505,Colour_Association_Experimentv1,2020.2.10,MacIntel,60,614813970c3839c5bfc24e99,,,,,5,0,5,0,1,,,,,,,
,,,,,,,,warm,1.1161,,,,,,5ed6866f9c98550b6a7c10dc,614815add628f6f80906bf22,2021-09-20_01h01.54.505,Colour_Association_Experimentv1,2020.2.10,MacIntel,60,614813970c3839c5bfc24e99,,,,,6,0,6,0,1,,,,,,,
,,,,,,,,happy,1.1343,,,,,,5ed6866f9c98550b6a7c10dc,614815add628f6f80906bf22,2021-09-20_01h01.54.505,Colour_Association_Experimentv1,2020.2.10,MacIntel,60,614813970c3839c5bfc24e99,,,,,7,0,7,0,1,,,,,,,
,,,,,,,,goofy,4.2848,,,,,,5ed6866f9c98550b6a7c10dc,614815add628f6f80906bf22,2021-09-20_01h01.54.505,Colour_Association_Experimentv1,2020.2.10,MacIntel,60,614813970c3839c5bfc24e99,,,,,8,0,8,0,1,,,,,,,
,,,,,,,,energy,3.817,,,,,,5ed6866f9c98550b6a7c10dc,614815add628f6f80906bf22,2021-09-20_01h01.54.505,Colour_Association_Experimentv1,2020.2.10,MacIntel,60,614813970c3839c5bfc24e99,,,,,9,0,9,0,1,,,,,,,
,,,,,,,,,2.633,,,,,,5ed6866f9c98550b6a7c10dc,614815add628f6f80906bf22,2021-09-20_01h01.54.505,Colour_Association_Experimentv1,2020.2.10,MacIntel,60,614813970c3839c5bfc24e99,,,,,10,0,10,0,1,,,,,,,
,,,,,,,,,,,,,,,5ed6866f9c98550b6a7c10dc,614815add628f6f80906bf22,2021-09-20_01h01.54.505,Colour_Association_Experimentv1,2020.2.10,MacIntel,60,614813970c3839c5bfc24e99,,,2,PF,,,,,,,,0,8,8,1,1
