key_resp.keys,key_resp.rt,key_resp_2.keys,key_resp_2.rt,key_resp_3.keys,key_resp_3.rt,key_resp_4.keys,key_resp_4.rt,inputText,rt,pracassoc.thisRepN,pracassoc.thisTrialN,pracassoc.thisN,pracassoc.thisIndex,pracassoc.ran,participant,session,date,expName,psychopyVersion,OS,frameRate,study_id,key_resp_6.keys,key_resp_6.rt,Colour1,Ecc,assocresponse.thisRepN,assocresponse.thisTrialN,assocresponse.thisN,assocresponse.thisIndex,assocresponse.ran,key_resp_5.keys,key_resp_5.rt,trials.thisRepN,trials.thisTrialN,trials.thisN,trials.thisIndex,trials.ran
space,1.7557,space,9.5854,space,6.7955,space,12.6146, piss,3.726,0,0,0,0,1,607728dc0b4f8590b94ae57c,61491a1fe6f594bb885389f9,2021-09-20_20h34.38.289,Colour_Association_Experimentv1,2020.2.10,Win32,60,614813970c3839c5bfc24e99,,,,,,,,,,,,,,,,
,,,,,,,,puss,2.3512,1,0,1,0,1,607728dc0b4f8590b94ae57c,61491a1fe6f594bb885389f9,2021-09-20_20h34.38.289,Colour_Association_Experimentv1,2020.2.10,Win32,60,614813970c3839c5bfc24e99,,,,,,,,,,,,,,,,
,,,,,,,,flower,4.1249,2,0,2,0,1,607728dc0b4f8590b94ae57c,61491a1fe6f594bb885389f9,2021-09-20_20h34.38.289,Colour_Association_Experimentv1,2020.2.10,Win32,60,614813970c3839c5bfc24e99,,,,,,,,,,,,,,,,
,,,,,,,,dress,1.6134,3,0,3,0,1,607728dc0b4f8590b94ae57c,61491a1fe6f594bb885389f9,2021-09-20_20h34.38.289,Colour_Association_Experimentv1,2020.2.10,Win32,60,614813970c3839c5bfc24e99,,,,,,,,,,,,,,,,
,,,,,,,,,1.6334,4,0,4,0,1,607728dc0b4f8590b94ae57c,61491a1fe6f594bb885389f9,2021-09-20_20h34.38.289,Colour_Association_Experimentv1,2020.2.10,Win32,60,614813970c3839c5bfc24e99,,,,,,,,,,,,,,,,
,,,,,,,, sky,2.0127,,,,,,607728dc0b4f8590b94ae57c,61491a1fe6f594bb885389f9,2021-09-20_20h34.38.289,Colour_Association_Experimentv1,2020.2.10,Win32,60,614813970c3839c5bfc24e99,space,0.767,6,PF,0,0,0,0,1,,,,,,,
,,,,,,,,water,1.8316,,,,,,607728dc0b4f8590b94ae57c,61491a1fe6f594bb885389f9,2021-09-20_20h34.38.289,Colour_Association_Experimentv1,2020.2.10,Win32,60,614813970c3839c5bfc24e99,,,,,1,0,1,0,1,,,,,,,
,,,,,,,,pool,1.1838,,,,,,607728dc0b4f8590b94ae57c,61491a1fe6f594bb885389f9,2021-09-20_20h34.38.289,Colour_Association_Experimentv1,2020.2.10,Win32,60,614813970c3839c5bfc24e99,,,,,2,0,2,0,1,,,,,,,
,,,,,,,,desert,4.3959,,,,,,607728dc0b4f8590b94ae57c,61491a1fe6f594bb885389f9,2021-09-20_20h34.38.289,Colour_Association_Experimentv1,2020.2.10,Win32,60,614813970c3839c5bfc24e99,,,,,3,0,3,0,1,,,,,,,
,,,,,,,,,1.9377,,,,,,607728dc0b4f8590b94ae57c,61491a1fe6f594bb885389f9,2021-09-20_20h34.38.289,Colour_Association_Experimentv1,2020.2.10,Win32,60,614813970c3839c5bfc24e99,,,,,4,0,4,0,1,,,,,,,
,,,,,,,,,,,,,,,607728dc0b4f8590b94ae57c,61491a1fe6f594bb885389f9,2021-09-20_20h34.38.289,Colour_Association_Experimentv1,2020.2.10,Win32,60,614813970c3839c5bfc24e99,,,6,PF,,,,,,space,0.0374,0,0,0,5,1
,,,,,,,, crayon,3.9126,,,,,,607728dc0b4f8590b94ae57c,61491a1fe6f594bb885389f9,2021-09-20_20h34.38.289,Colour_Association_Experimentv1,2020.2.10,Win32,60,614813970c3839c5bfc24e99,,,9,FF,0,0,0,0,1,,,,,,,
,,,,,,,,,4.5467,,,,,,607728dc0b4f8590b94ae57c,61491a1fe6f594bb885389f9,2021-09-20_20h34.38.289,Colour_Association_Experimentv1,2020.2.10,Win32,60,614813970c3839c5bfc24e99,,,,,1,0,1,0,1,,,,,,,
,,,,,,,,,,,,,,,607728dc0b4f8590b94ae57c,61491a1fe6f594bb885389f9,2021-09-20_20h34.38.289,Colour_Association_Experimentv1,2020.2.10,Win32,60,614813970c3839c5bfc24e99,,,9,FF,,,,,,space,1.5962,0,1,1,8,1
,,,,,,,, blood,2.2037,,,,,,607728dc0b4f8590b94ae57c,61491a1fe6f594bb885389f9,2021-09-20_20h34.38.289,Colour_Association_Experimentv1,2020.2.10,Win32,60,614813970c3839c5bfc24e99,,,1,FF,0,0,0,0,1,,,,,,,
,,,,,,,,death,2.4304,,,,,,607728dc0b4f8590b94ae57c,61491a1fe6f594bb885389f9,2021-09-20_20h34.38.289,Colour_Association_Experimentv1,2020.2.10,Win32,60,614813970c3839c5bfc24e99,,,,,1,0,1,0,1,,,,,,,
,,,,,,,,murder,1.948,,,,,,607728dc0b4f8590b94ae57c,61491a1fe6f594bb885389f9,2021-09-20_20h34.38.289,Colour_Association_Experimentv1,2020.2.10,Win32,60,614813970c3839c5bfc24e99,,,,,2,0,2,0,1,,,,,,,
,,,,,,,,,4.0647,,,,,,607728dc0b4f8590b94ae57c,61491a1fe6f594bb885389f9,2021-09-20_20h34.38.289,Colour_Association_Experimentv1,2020.2.10,Win32,60,614813970c3839c5bfc24e99,,,,,3,0,3,0,1,,,,,,,
,,,,,,,,,,,,,,,607728dc0b4f8590b94ae57c,61491a1fe6f594bb885389f9,2021-09-20_20h34.38.289,Colour_Association_Experimentv1,2020.2.10,Win32,60,614813970c3839c5bfc24e99,,,1,FF,,,,,,space,0.865,0,2,2,0,1
,,,,,,,, mustard,4.6739,,,,,,607728dc0b4f8590b94ae57c,61491a1fe6f594bb885389f9,2021-09-20_20h34.38.289,Colour_Association_Experimentv1,2020.2.10,Win32,60,614813970c3839c5bfc24e99,,,2,PF,0,0,0,0,1,,,,,,,
,,,,,,,,gas,6.7547,,,,,,607728dc0b4f8590b94ae57c,61491a1fe6f594bb885389f9,2021-09-20_20h34.38.289,Colour_Association_Experimentv1,2020.2.10,Win32,60,614813970c3839c5bfc24e99,,,,,1,0,1,0,1,,,,,,,
,,,,,,,,,7.793,,,,,,607728dc0b4f8590b94ae57c,61491a1fe6f594bb885389f9,2021-09-20_20h34.38.289,Colour_Association_Experimentv1,2020.2.10,Win32,60,614813970c3839c5bfc24e99,,,,,2,0,2,0,1,,,,,,,
,,,,,,,,,,,,,,,607728dc0b4f8590b94ae57c,61491a1fe6f594bb885389f9,2021-09-20_20h34.38.289,Colour_Association_Experimentv1,2020.2.10,Win32,60,614813970c3839c5bfc24e99,,,2,PF,,,,,,space,0.4765,0,3,3,1,1
,,,,,,,, grass,2.9916,,,,,,607728dc0b4f8590b94ae57c,61491a1fe6f594bb885389f9,2021-09-20_20h34.38.289,Colour_Association_Experimentv1,2020.2.10,Win32,60,614813970c3839c5bfc24e99,,,3,FF,0,0,0,0,1,,,,,,,
,,,,,,,,weed,1.8987,,,,,,607728dc0b4f8590b94ae57c,61491a1fe6f594bb885389f9,2021-09-20_20h34.38.289,Colour_Association_Experimentv1,2020.2.10,Win32,60,614813970c3839c5bfc24e99,,,,,1,0,1,0,1,,,,,,,
,,,,,,,,drink,6.0306,,,,,,607728dc0b4f8590b94ae57c,61491a1fe6f594bb885389f9,2021-09-20_20h34.38.289,Colour_Association_Experimentv1,2020.2.10,Win32,60,614813970c3839c5bfc24e99,,,,,2,0,2,0,1,,,,,,,
,,,,,,,,plastic,5.2628,,,,,,607728dc0b4f8590b94ae57c,61491a1fe6f594bb885389f9,2021-09-20_20h34.38.289,Colour_Association_Experimentv1,2020.2.10,Win32,60,614813970c3839c5bfc24e99,,,,,3,0,3,0,1,,,,,,,
,,,,,,,,,2.3814,,,,,,607728dc0b4f8590b94ae57c,61491a1fe6f594bb885389f9,2021-09-20_20h34.38.289,Colour_Association_Experimentv1,2020.2.10,Win32,60,614813970c3839c5bfc24e99,,,,,4,0,4,0,1,,,,,,,
,,,,,,,,,,,,,,,607728dc0b4f8590b94ae57c,61491a1fe6f594bb885389f9,2021-09-20_20h34.38.289,Colour_Association_Experimentv1,2020.2.10,Win32,60,614813970c3839c5bfc24e99,,,3,FF,,,,,,space,1.3065,0,4,4,2,1
,,,,,,,, paper,4.3719,,,,,,607728dc0b4f8590b94ae57c,61491a1fe6f594bb885389f9,2021-09-20_20h34.38.289,Colour_Association_Experimentv1,2020.2.10,Win32,60,614813970c3839c5bfc24e99,,,8,PF,0,0,0,0,1,,,,,,,
,,,,,,,,pencil,3.0218,,,,,,607728dc0b4f8590b94ae57c,61491a1fe6f594bb885389f9,2021-09-20_20h34.38.289,Colour_Association_Experimentv1,2020.2.10,Win32,60,614813970c3839c5bfc24e99,,,,,1,0,1,0,1,,,,,,,
,,,,,,,,blueberry,8.2689,,,,,,607728dc0b4f8590b94ae57c,61491a1fe6f594bb885389f9,2021-09-20_20h34.38.289,Colour_Association_Experimentv1,2020.2.10,Win32,60,614813970c3839c5bfc24e99,,,,,2,0,2,0,1,,,,,,,
,,,,,,,,,1.0684,,,,,,607728dc0b4f8590b94ae57c,61491a1fe6f594bb885389f9,2021-09-20_20h34.38.289,Colour_Association_Experimentv1,2020.2.10,Win32,60,614813970c3839c5bfc24e99,,,,,3,0,3,0,1,,,,,,,
,,,,,,,,,,,,,,,607728dc0b4f8590b94ae57c,61491a1fe6f594bb885389f9,2021-09-20_20h34.38.289,Colour_Association_Experimentv1,2020.2.10,Win32,60,614813970c3839c5bfc24e99,,,8,PF,,,,,,space,3.7197,0,5,5,7,1
,,,,,,,, tree,5.1459,,,,,,607728dc0b4f8590b94ae57c,61491a1fe6f594bb885389f9,2021-09-20_20h34.38.289,Colour_Association_Experimentv1,2020.2.10,Win32,60,614813970c3839c5bfc24e99,,,4,PF,0,0,0,0,1,,,,,,,
,,,,,,,,grass,2.2475,,,,,,607728dc0b4f8590b94ae57c,61491a1fe6f594bb885389f9,2021-09-20_20h34.38.289,Colour_Association_Experimentv1,2020.2.10,Win32,60,614813970c3839c5bfc24e99,,,,,1,0,1,0,1,,,,,,,
,,,,,,,,house,4.8138,,,,,,607728dc0b4f8590b94ae57c,61491a1fe6f594bb885389f9,2021-09-20_20h34.38.289,Colour_Association_Experimentv1,2020.2.10,Win32,60,614813970c3839c5bfc24e99,,,,,2,0,2,0,1,,,,,,,
,,,,,,,,health,3.6156,,,,,,607728dc0b4f8590b94ae57c,61491a1fe6f594bb885389f9,2021-09-20_20h34.38.289,Colour_Association_Experimentv1,2020.2.10,Win32,60,614813970c3839c5bfc24e99,,,,,3,0,3,0,1,,,,,,,
,,,,,,,,,7.697,,,,,,607728dc0b4f8590b94ae57c,61491a1fe6f594bb885389f9,2021-09-20_20h34.38.289,Colour_Association_Experimentv1,2020.2.10,Win32,60,614813970c3839c5bfc24e99,,,,,4,0,4,0,1,,,,,,,
,,,,,,,,,,,,,,,607728dc0b4f8590b94ae57c,61491a1fe6f594bb885389f9,2021-09-20_20h34.38.289,Colour_Association_Experimentv1,2020.2.10,Win32,60,614813970c3839c5bfc24e99,,,4,PF,,,,,,space,0.1048,0,6,6,3,1
,,,,,,,, balloon,5.3627,,,,,,607728dc0b4f8590b94ae57c,61491a1fe6f594bb885389f9,2021-09-20_20h34.38.289,Colour_Association_Experimentv1,2020.2.10,Win32,60,614813970c3839c5bfc24e99,,,5,FF,0,0,0,0,1,,,,,,,
,,,,,,,,water,3.2807,,,,,,607728dc0b4f8590b94ae57c,61491a1fe6f594bb885389f9,2021-09-20_20h34.38.289,Colour_Association_Experimentv1,2020.2.10,Win32,60,614813970c3839c5bfc24e99,,,,,1,0,1,0,1,,,,,,,
,,,,,,,,shower,6.7474,,,,,,607728dc0b4f8590b94ae57c,61491a1fe6f594bb885389f9,2021-09-20_20h34.38.289,Colour_Association_Experimentv1,2020.2.10,Win32,60,614813970c3839c5bfc24e99,,,,,2,0,2,0,1,,,,,,,
,,,,,,,,sky,4.881,,,,,,607728dc0b4f8590b94ae57c,61491a1fe6f594bb885389f9,2021-09-20_20h34.38.289,Colour_Association_Experimentv1,2020.2.10,Win32,60,614813970c3839c5bfc24e99,,,,,3,0,3,0,1,,,,,,,
,,,,,,,,,1.3797,,,,,,607728dc0b4f8590b94ae57c,61491a1fe6f594bb885389f9,2021-09-20_20h34.38.289,Colour_Association_Experimentv1,2020.2.10,Win32,60,614813970c3839c5bfc24e99,,,,,4,0,4,0,1,,,,,,,
,,,,,,,,,,,,,,,607728dc0b4f8590b94ae57c,61491a1fe6f594bb885389f9,2021-09-20_20h34.38.289,Colour_Association_Experimentv1,2020.2.10,Win32,60,614813970c3839c5bfc24e99,,,5,FF,,,,,,space,1.0293,0,7,7,4,1
,,,,,,,, jean,3.7364,,,,,,607728dc0b4f8590b94ae57c,61491a1fe6f594bb885389f9,2021-09-20_20h34.38.289,Colour_Association_Experimentv1,2020.2.10,Win32,60,614813970c3839c5bfc24e99,,,7,FF,0,0,0,0,1,,,,,,,
,,,,,,,,clothes,3.0475,,,,,,607728dc0b4f8590b94ae57c,61491a1fe6f594bb885389f9,2021-09-20_20h34.38.289,Colour_Association_Experimentv1,2020.2.10,Win32,60,614813970c3839c5bfc24e99,,,,,1,0,1,0,1,,,,,,,
,,,,,,,,warm,2.131,,,,,,607728dc0b4f8590b94ae57c,61491a1fe6f594bb885389f9,2021-09-20_20h34.38.289,Colour_Association_Experimentv1,2020.2.10,Win32,60,614813970c3839c5bfc24e99,,,,,2,0,2,0,1,,,,,,,
,,,,,,,,calm,1.9817,,,,,,607728dc0b4f8590b94ae57c,61491a1fe6f594bb885389f9,2021-09-20_20h34.38.289,Colour_Association_Experimentv1,2020.2.10,Win32,60,614813970c3839c5bfc24e99,,,,,3,0,3,0,1,,,,,,,
,,,,,,,,cop,5.7503,,,,,,607728dc0b4f8590b94ae57c,61491a1fe6f594bb885389f9,2021-09-20_20h34.38.289,Colour_Association_Experimentv1,2020.2.10,Win32,60,614813970c3839c5bfc24e99,,,,,4,0,4,0,1,,,,,,,
,,,,,,,,,7.3102,,,,,,607728dc0b4f8590b94ae57c,61491a1fe6f594bb885389f9,2021-09-20_20h34.38.289,Colour_Association_Experimentv1,2020.2.10,Win32,60,614813970c3839c5bfc24e99,,,,,5,0,5,0,1,,,,,,,
,,,,,,,,,,,,,,,607728dc0b4f8590b94ae57c,61491a1fe6f594bb885389f9,2021-09-20_20h34.38.289,Colour_Association_Experimentv1,2020.2.10,Win32,60,614813970c3839c5bfc24e99,,,7,FF,,,,,,,,0,8,8,6,1
