key_resp.keys,key_resp.rt,key_resp_2.keys,key_resp_2.rt,key_resp_3.keys,key_resp_3.rt,key_resp_4.keys,key_resp_4.rt,inputText,rt,pracassoc.thisRepN,pracassoc.thisTrialN,pracassoc.thisN,pracassoc.thisIndex,pracassoc.ran,participant,session,date,expName,psychopyVersion,OS,frameRate,study_id,key_resp_6.keys,key_resp_6.rt,Colour1,Ecc,assocresponse.thisRepN,assocresponse.thisTrialN,assocresponse.thisN,assocresponse.thisIndex,assocresponse.ran,key_resp_5.keys,key_resp_5.rt,trials.thisRepN,trials.thisTrialN,trials.thisN,trials.thisIndex,trials.ran
space,2.6462,space,7.8576,space,12.3838,space,59.5492, fun,10.9735,0,0,0,0,1,60fb1fc7b2b02ebe00fc26e7,614919e4a3679db7690cc68a,2021-09-21_01h32.27.840,Colour_Association_Experimentv1,2020.2.10,Win32,60,614813970c3839c5bfc24e99,,,,,,,,,,,,,,,,
,,,,,,,,new,22.3404,1,0,1,0,1,60fb1fc7b2b02ebe00fc26e7,614919e4a3679db7690cc68a,2021-09-21_01h32.27.840,Colour_Association_Experimentv1,2020.2.10,Win32,60,614813970c3839c5bfc24e99,,,,,,,,,,,,,,,,
,,,,,,,,,7.9462,2,0,2,0,1,60fb1fc7b2b02ebe00fc26e7,614919e4a3679db7690cc68a,2021-09-21_01h32.27.840,Colour_Association_Experimentv1,2020.2.10,Win32,60,614813970c3839c5bfc24e99,,,,,,,,,,,,,,,,
,,,,,,,, cold,6.7464,,,,,,60fb1fc7b2b02ebe00fc26e7,614919e4a3679db7690cc68a,2021-09-21_01h32.27.840,Colour_Association_Experimentv1,2020.2.10,Win32,60,614813970c3839c5bfc24e99,space,5.515,7,FF,0,0,0,0,1,,,,,,,
,,,,,,,,smart,9.1785,,,,,,60fb1fc7b2b02ebe00fc26e7,614919e4a3679db7690cc68a,2021-09-21_01h32.27.840,Colour_Association_Experimentv1,2020.2.10,Win32,60,614813970c3839c5bfc24e99,,,,,1,0,1,0,1,,,,,,,
,,,,,,,,,5.6302,,,,,,60fb1fc7b2b02ebe00fc26e7,614919e4a3679db7690cc68a,2021-09-21_01h32.27.840,Colour_Association_Experimentv1,2020.2.10,Win32,60,614813970c3839c5bfc24e99,,,,,2,0,2,0,1,,,,,,,
,,,,,,,,,,,,,,,60fb1fc7b2b02ebe00fc26e7,614919e4a3679db7690cc68a,2021-09-21_01h32.27.840,Colour_Association_Experimentv1,2020.2.10,Win32,60,614813970c3839c5bfc24e99,,,7,FF,,,,,,space,0.7292,0,0,0,6,1
,,,,,,,, anger,4.0308,,,,,,60fb1fc7b2b02ebe00fc26e7,614919e4a3679db7690cc68a,2021-09-21_01h32.27.840,Colour_Association_Experimentv1,2020.2.10,Win32,60,614813970c3839c5bfc24e99,,,1,FF,0,0,0,0,1,,,,,,,
,,,,,,,,negativity,9.4624,,,,,,60fb1fc7b2b02ebe00fc26e7,614919e4a3679db7690cc68a,2021-09-21_01h32.27.840,Colour_Association_Experimentv1,2020.2.10,Win32,60,614813970c3839c5bfc24e99,,,,,1,0,1,0,1,,,,,,,
,,,,,,,,hot,13.9606,,,,,,60fb1fc7b2b02ebe00fc26e7,614919e4a3679db7690cc68a,2021-09-21_01h32.27.840,Colour_Association_Experimentv1,2020.2.10,Win32,60,614813970c3839c5bfc24e99,,,,,2,0,2,0,1,,,,,,,
,,,,,,,,,2.115,,,,,,60fb1fc7b2b02ebe00fc26e7,614919e4a3679db7690cc68a,2021-09-21_01h32.27.840,Colour_Association_Experimentv1,2020.2.10,Win32,60,614813970c3839c5bfc24e99,,,,,3,0,3,0,1,,,,,,,
,,,,,,,,,,,,,,,60fb1fc7b2b02ebe00fc26e7,614919e4a3679db7690cc68a,2021-09-21_01h32.27.840,Colour_Association_Experimentv1,2020.2.10,Win32,60,614813970c3839c5bfc24e99,,,1,FF,,,,,,space,1.0238,0,1,1,0,1
,,,,,,,, calmness,11.395,,,,,,60fb1fc7b2b02ebe00fc26e7,614919e4a3679db7690cc68a,2021-09-21_01h32.27.840,Colour_Association_Experimentv1,2020.2.10,Win32,60,614813970c3839c5bfc24e99,,,6,PF,0,0,0,0,1,,,,,,,
,,,,,,,,sad,13.5273,,,,,,60fb1fc7b2b02ebe00fc26e7,614919e4a3679db7690cc68a,2021-09-21_01h32.27.840,Colour_Association_Experimentv1,2020.2.10,Win32,60,614813970c3839c5bfc24e99,,,,,1,0,1,0,1,,,,,,,
,,,,,,,,winter,21.2079,,,,,,60fb1fc7b2b02ebe00fc26e7,614919e4a3679db7690cc68a,2021-09-21_01h32.27.840,Colour_Association_Experimentv1,2020.2.10,Win32,60,614813970c3839c5bfc24e99,,,,,2,0,2,0,1,,,,,,,
,,,,,,,,,1.6485,,,,,,60fb1fc7b2b02ebe00fc26e7,614919e4a3679db7690cc68a,2021-09-21_01h32.27.840,Colour_Association_Experimentv1,2020.2.10,Win32,60,614813970c3839c5bfc24e99,,,,,3,0,3,0,1,,,,,,,
,,,,,,,,,,,,,,,60fb1fc7b2b02ebe00fc26e7,614919e4a3679db7690cc68a,2021-09-21_01h32.27.840,Colour_Association_Experimentv1,2020.2.10,Win32,60,614813970c3839c5bfc24e99,,,6,PF,,,,,,space,1.202,0,2,2,5,1
,,,,,,,, magestic,10.2785,,,,,,60fb1fc7b2b02ebe00fc26e7,614919e4a3679db7690cc68a,2021-09-21_01h32.27.840,Colour_Association_Experimentv1,2020.2.10,Win32,60,614813970c3839c5bfc24e99,,,9,FF,0,0,0,0,1,,,,,,,
,,,,,,,,unique,7.6795,,,,,,60fb1fc7b2b02ebe00fc26e7,614919e4a3679db7690cc68a,2021-09-21_01h32.27.840,Colour_Association_Experimentv1,2020.2.10,Win32,60,614813970c3839c5bfc24e99,,,,,1,0,1,0,1,,,,,,,
,,,,,,,,warm,5.5471,,,,,,60fb1fc7b2b02ebe00fc26e7,614919e4a3679db7690cc68a,2021-09-21_01h32.27.840,Colour_Association_Experimentv1,2020.2.10,Win32,60,614813970c3839c5bfc24e99,,,,,2,0,2,0,1,,,,,,,
,,,,,,,,,1.1486,,,,,,60fb1fc7b2b02ebe00fc26e7,614919e4a3679db7690cc68a,2021-09-21_01h32.27.840,Colour_Association_Experimentv1,2020.2.10,Win32,60,614813970c3839c5bfc24e99,,,,,3,0,3,0,1,,,,,,,
,,,,,,,,,,,,,,,60fb1fc7b2b02ebe00fc26e7,614919e4a3679db7690cc68a,2021-09-21_01h32.27.840,Colour_Association_Experimentv1,2020.2.10,Win32,60,614813970c3839c5bfc24e99,,,9,FF,,,,,,space,3.6657,0,3,3,8,1
,,,,,,,, extreme,24.557,,,,,,60fb1fc7b2b02ebe00fc26e7,614919e4a3679db7690cc68a,2021-09-21_01h32.27.840,Colour_Association_Experimentv1,2020.2.10,Win32,60,614813970c3839c5bfc24e99,,,8,PF,0,0,0,0,1,,,,,,,
,,,,,,,,intelligence,37.8356,,,,,,60fb1fc7b2b02ebe00fc26e7,614919e4a3679db7690cc68a,2021-09-21_01h32.27.840,Colour_Association_Experimentv1,2020.2.10,Win32,60,614813970c3839c5bfc24e99,,,,,1,0,1,0,1,,,,,,,
,,,,,,,,,1.3981,,,,,,60fb1fc7b2b02ebe00fc26e7,614919e4a3679db7690cc68a,2021-09-21_01h32.27.840,Colour_Association_Experimentv1,2020.2.10,Win32,60,614813970c3839c5bfc24e99,,,,,2,0,2,0,1,,,,,,,
,,,,,,,,,,,,,,,60fb1fc7b2b02ebe00fc26e7,614919e4a3679db7690cc68a,2021-09-21_01h32.27.840,Colour_Association_Experimentv1,2020.2.10,Win32,60,614813970c3839c5bfc24e99,,,8,PF,,,,,,space,0.1378,0,4,4,7,1
,,,,,,,, nature,4.2975,,,,,,60fb1fc7b2b02ebe00fc26e7,614919e4a3679db7690cc68a,2021-09-21_01h32.27.840,Colour_Association_Experimentv1,2020.2.10,Win32,60,614813970c3839c5bfc24e99,,,4,PF,0,0,0,0,1,,,,,,,
,,,,,,,,fortune,11.0452,,,,,,60fb1fc7b2b02ebe00fc26e7,614919e4a3679db7690cc68a,2021-09-21_01h32.27.840,Colour_Association_Experimentv1,2020.2.10,Win32,60,614813970c3839c5bfc24e99,,,,,1,0,1,0,1,,,,,,,
,,,,,,,,wealth,8.23,,,,,,60fb1fc7b2b02ebe00fc26e7,614919e4a3679db7690cc68a,2021-09-21_01h32.27.840,Colour_Association_Experimentv1,2020.2.10,Win32,60,614813970c3839c5bfc24e99,,,,,2,0,2,0,1,,,,,,,
,,,,,,,,,1.6978,,,,,,60fb1fc7b2b02ebe00fc26e7,614919e4a3679db7690cc68a,2021-09-21_01h32.27.840,Colour_Association_Experimentv1,2020.2.10,Win32,60,614813970c3839c5bfc24e99,,,,,3,0,3,0,1,,,,,,,
,,,,,,,,,,,,,,,60fb1fc7b2b02ebe00fc26e7,614919e4a3679db7690cc68a,2021-09-21_01h32.27.840,Colour_Association_Experimentv1,2020.2.10,Win32,60,614813970c3839c5bfc24e99,,,4,PF,,,,,,space,0.4836,0,5,5,3,1
,,,,,,,, laziness,16.1093,,,,,,60fb1fc7b2b02ebe00fc26e7,614919e4a3679db7690cc68a,2021-09-21_01h32.27.840,Colour_Association_Experimentv1,2020.2.10,Win32,60,614813970c3839c5bfc24e99,,,2,PF,0,0,0,0,1,,,,,,,
,,,,,,,,caution,4.7141,,,,,,60fb1fc7b2b02ebe00fc26e7,614919e4a3679db7690cc68a,2021-09-21_01h32.27.840,Colour_Association_Experimentv1,2020.2.10,Win32,60,614813970c3839c5bfc24e99,,,,,1,0,1,0,1,,,,,,,
,,,,,,,,warm,27.1226,,,,,,60fb1fc7b2b02ebe00fc26e7,614919e4a3679db7690cc68a,2021-09-21_01h32.27.840,Colour_Association_Experimentv1,2020.2.10,Win32,60,614813970c3839c5bfc24e99,,,,,2,0,2,0,1,,,,,,,
,,,,,,,,,1.2321,,,,,,60fb1fc7b2b02ebe00fc26e7,614919e4a3679db7690cc68a,2021-09-21_01h32.27.840,Colour_Association_Experimentv1,2020.2.10,Win32,60,614813970c3839c5bfc24e99,,,,,3,0,3,0,1,,,,,,,
,,,,,,,,,,,,,,,60fb1fc7b2b02ebe00fc26e7,614919e4a3679db7690cc68a,2021-09-21_01h32.27.840,Colour_Association_Experimentv1,2020.2.10,Win32,60,614813970c3839c5bfc24e99,,,2,PF,,,,,,space,0.2034,0,6,6,1,1
,,,,,,,, scared,4.83,,,,,,60fb1fc7b2b02ebe00fc26e7,614919e4a3679db7690cc68a,2021-09-21_01h32.27.840,Colour_Association_Experimentv1,2020.2.10,Win32,60,614813970c3839c5bfc24e99,,,5,FF,0,0,0,0,1,,,,,,,
,,,,,,,,lie,18.5428,,,,,,60fb1fc7b2b02ebe00fc26e7,614919e4a3679db7690cc68a,2021-09-21_01h32.27.840,Colour_Association_Experimentv1,2020.2.10,Win32,60,614813970c3839c5bfc24e99,,,,,1,0,1,0,1,,,,,,,
,,,,,,,,betrayal,11.0615,,,,,,60fb1fc7b2b02ebe00fc26e7,614919e4a3679db7690cc68a,2021-09-21_01h32.27.840,Colour_Association_Experimentv1,2020.2.10,Win32,60,614813970c3839c5bfc24e99,,,,,2,0,2,0,1,,,,,,,
,,,,,,,,,1.9812,,,,,,60fb1fc7b2b02ebe00fc26e7,614919e4a3679db7690cc68a,2021-09-21_01h32.27.840,Colour_Association_Experimentv1,2020.2.10,Win32,60,614813970c3839c5bfc24e99,,,,,3,0,3,0,1,,,,,,,
,,,,,,,,,,,,,,,60fb1fc7b2b02ebe00fc26e7,614919e4a3679db7690cc68a,2021-09-21_01h32.27.840,Colour_Association_Experimentv1,2020.2.10,Win32,60,614813970c3839c5bfc24e99,,,5,FF,,,,,,space,0.0602,0,7,7,4,1
,,,,,,,, spring,3.1977,,,,,,60fb1fc7b2b02ebe00fc26e7,614919e4a3679db7690cc68a,2021-09-21_01h32.27.840,Colour_Association_Experimentv1,2020.2.10,Win32,60,614813970c3839c5bfc24e99,,,3,FF,0,0,0,0,1,,,,,,,
,,,,,,,,trust,11.6792,,,,,,60fb1fc7b2b02ebe00fc26e7,614919e4a3679db7690cc68a,2021-09-21_01h32.27.840,Colour_Association_Experimentv1,2020.2.10,Win32,60,614813970c3839c5bfc24e99,,,,,1,0,1,0,1,,,,,,,
,,,,,,,,life,10.0787,,,,,,60fb1fc7b2b02ebe00fc26e7,614919e4a3679db7690cc68a,2021-09-21_01h32.27.840,Colour_Association_Experimentv1,2020.2.10,Win32,60,614813970c3839c5bfc24e99,,,,,2,0,2,0,1,,,,,,,
,,,,,,,,,1.1653,,,,,,60fb1fc7b2b02ebe00fc26e7,614919e4a3679db7690cc68a,2021-09-21_01h32.27.840,Colour_Association_Experimentv1,2020.2.10,Win32,60,614813970c3839c5bfc24e99,,,,,3,0,3,0,1,,,,,,,
,,,,,,,,,,,,,,,60fb1fc7b2b02ebe00fc26e7,614919e4a3679db7690cc68a,2021-09-21_01h32.27.840,Colour_Association_Experimentv1,2020.2.10,Win32,60,614813970c3839c5bfc24e99,,,3,FF,,,,,,,,0,8,8,2,1
