key_resp.keys,key_resp.rt,key_resp_2.keys,key_resp_2.rt,key_resp_3.keys,key_resp_3.rt,key_resp_4.keys,key_resp_4.rt,inputText,rt,pracassoc.thisRepN,pracassoc.thisTrialN,pracassoc.thisN,pracassoc.thisIndex,pracassoc.ran,participant,session,date,expName,psychopyVersion,OS,frameRate,study_id,key_resp_6.keys,key_resp_6.rt,Colour1,Ecc,assocresponse.thisRepN,assocresponse.thisTrialN,assocresponse.thisN,assocresponse.thisIndex,assocresponse.ran,key_resp_5.keys,key_resp_5.rt,trials.thisRepN,trials.thisTrialN,trials.thisN,trials.thisIndex,trials.ran
space,1.2661,space,1.4039,space,4.435,space,28.967, happy,11.4165,0,0,0,0,1,6110ca6cdaa5a7f8064963e8,614919e7f00a54fff637fdd8,2021-09-20_17h32.06.544,Colour_Association_Experimentv1,2020.2.10,MacIntel,60,614813970c3839c5bfc24e99,,,,,,,,,,,,,,,,
,,,,,,,,joy,4.1883,1,0,1,0,1,6110ca6cdaa5a7f8064963e8,614919e7f00a54fff637fdd8,2021-09-20_17h32.06.544,Colour_Association_Experimentv1,2020.2.10,MacIntel,60,614813970c3839c5bfc24e99,,,,,,,,,,,,,,,,
,,,,,,,,sun,1.903,2,0,2,0,1,6110ca6cdaa5a7f8064963e8,614919e7f00a54fff637fdd8,2021-09-20_17h32.06.544,Colour_Association_Experimentv1,2020.2.10,MacIntel,60,614813970c3839c5bfc24e99,,,,,,,,,,,,,,,,
,,,,,,,,flowers,10.108,3,0,3,0,1,6110ca6cdaa5a7f8064963e8,614919e7f00a54fff637fdd8,2021-09-20_17h32.06.544,Colour_Association_Experimentv1,2020.2.10,MacIntel,60,614813970c3839c5bfc24e99,,,,,,,,,,,,,,,,
,,,,,,,,sunflowers,3.9754,4,0,4,0,1,6110ca6cdaa5a7f8064963e8,614919e7f00a54fff637fdd8,2021-09-20_17h32.06.544,Colour_Association_Experimentv1,2020.2.10,MacIntel,60,614813970c3839c5bfc24e99,,,,,,,,,,,,,,,,
,,,,,,,,,10.807,5,0,5,0,1,6110ca6cdaa5a7f8064963e8,614919e7f00a54fff637fdd8,2021-09-20_17h32.06.544,Colour_Association_Experimentv1,2020.2.10,MacIntel,60,614813970c3839c5bfc24e99,,,,,,,,,,,,,,,,
,,,,,,,, ocean,7.8164,,,,,,6110ca6cdaa5a7f8064963e8,614919e7f00a54fff637fdd8,2021-09-20_17h32.06.544,Colour_Association_Experimentv1,2020.2.10,MacIntel,60,614813970c3839c5bfc24e99,space,2.8968,6,PF,0,0,0,0,1,,,,,,,
,,,,,,,,painting,16.608,,,,,,6110ca6cdaa5a7f8064963e8,614919e7f00a54fff637fdd8,2021-09-20_17h32.06.544,Colour_Association_Experimentv1,2020.2.10,MacIntel,60,614813970c3839c5bfc24e99,,,,,1,0,1,0,1,,,,,,,
,,,,,,,,tropical,19.983,,,,,,6110ca6cdaa5a7f8064963e8,614919e7f00a54fff637fdd8,2021-09-20_17h32.06.544,Colour_Association_Experimentv1,2020.2.10,MacIntel,60,614813970c3839c5bfc24e99,,,,,2,0,2,0,1,,,,,,,
,,,,,,,,,1.1679,,,,,,6110ca6cdaa5a7f8064963e8,614919e7f00a54fff637fdd8,2021-09-20_17h32.06.544,Colour_Association_Experimentv1,2020.2.10,MacIntel,60,614813970c3839c5bfc24e99,,,,,3,0,3,0,1,,,,,,,
,,,,,,,,,,,,,,,6110ca6cdaa5a7f8064963e8,614919e7f00a54fff637fdd8,2021-09-20_17h32.06.544,Colour_Association_Experimentv1,2020.2.10,MacIntel,60,614813970c3839c5bfc24e99,,,6,PF,,,,,,space,1.3572,0,0,0,5,1
,,,,,,,, fall,4.1557,,,,,,6110ca6cdaa5a7f8064963e8,614919e7f00a54fff637fdd8,2021-09-20_17h32.06.544,Colour_Association_Experimentv1,2020.2.10,MacIntel,60,614813970c3839c5bfc24e99,,,2,PF,0,0,0,0,1,,,,,,,
,,,,,,,,pumpkins,2.9402,,,,,,6110ca6cdaa5a7f8064963e8,614919e7f00a54fff637fdd8,2021-09-20_17h32.06.544,Colour_Association_Experimentv1,2020.2.10,MacIntel,60,614813970c3839c5bfc24e99,,,,,1,0,1,0,1,,,,,,,
,,,,,,,,terra cotta,6.2132,,,,,,6110ca6cdaa5a7f8064963e8,614919e7f00a54fff637fdd8,2021-09-20_17h32.06.544,Colour_Association_Experimentv1,2020.2.10,MacIntel,60,614813970c3839c5bfc24e99,,,,,2,0,2,0,1,,,,,,,
,,,,,,,,traffic cone,22.573,,,,,,6110ca6cdaa5a7f8064963e8,614919e7f00a54fff637fdd8,2021-09-20_17h32.06.544,Colour_Association_Experimentv1,2020.2.10,MacIntel,60,614813970c3839c5bfc24e99,,,,,3,0,3,0,1,,,,,,,
,,,,,,,,,1.5499,,,,,,6110ca6cdaa5a7f8064963e8,614919e7f00a54fff637fdd8,2021-09-20_17h32.06.544,Colour_Association_Experimentv1,2020.2.10,MacIntel,60,614813970c3839c5bfc24e99,,,,,4,0,4,0,1,,,,,,,
,,,,,,,,,,,,,,,6110ca6cdaa5a7f8064963e8,614919e7f00a54fff637fdd8,2021-09-20_17h32.06.544,Colour_Association_Experimentv1,2020.2.10,MacIntel,60,614813970c3839c5bfc24e99,,,2,PF,,,,,,space,0.3353,0,1,1,1,1
,,,,,,,, deep sea,5.4453,,,,,,6110ca6cdaa5a7f8064963e8,614919e7f00a54fff637fdd8,2021-09-20_17h32.06.544,Colour_Association_Experimentv1,2020.2.10,MacIntel,60,614813970c3839c5bfc24e99,,,7,FF,0,0,0,0,1,,,,,,,
,,,,,,,,night time,4.6268,,,,,,6110ca6cdaa5a7f8064963e8,614919e7f00a54fff637fdd8,2021-09-20_17h32.06.544,Colour_Association_Experimentv1,2020.2.10,MacIntel,60,614813970c3839c5bfc24e99,,,,,1,0,1,0,1,,,,,,,
,,,,,,,,relaxing,30.3632,,,,,,6110ca6cdaa5a7f8064963e8,614919e7f00a54fff637fdd8,2021-09-20_17h32.06.544,Colour_Association_Experimentv1,2020.2.10,MacIntel,60,614813970c3839c5bfc24e99,,,,,2,0,2,0,1,,,,,,,
,,,,,,,,,1.7186,,,,,,6110ca6cdaa5a7f8064963e8,614919e7f00a54fff637fdd8,2021-09-20_17h32.06.544,Colour_Association_Experimentv1,2020.2.10,MacIntel,60,614813970c3839c5bfc24e99,,,,,3,0,3,0,1,,,,,,,
,,,,,,,,,,,,,,,6110ca6cdaa5a7f8064963e8,614919e7f00a54fff637fdd8,2021-09-20_17h32.06.544,Colour_Association_Experimentv1,2020.2.10,MacIntel,60,614813970c3839c5bfc24e99,,,7,FF,,,,,,space,0.59,0,2,2,6,1
,,,,,,,, energetic,5.9291,,,,,,6110ca6cdaa5a7f8064963e8,614919e7f00a54fff637fdd8,2021-09-20_17h32.06.544,Colour_Association_Experimentv1,2020.2.10,MacIntel,60,614813970c3839c5bfc24e99,,,3,FF,0,0,0,0,1,,,,,,,
,,,,,,,,bright,4.9596,,,,,,6110ca6cdaa5a7f8064963e8,614919e7f00a54fff637fdd8,2021-09-20_17h32.06.544,Colour_Association_Experimentv1,2020.2.10,MacIntel,60,614813970c3839c5bfc24e99,,,,,1,0,1,0,1,,,,,,,
,,,,,,,,hyper,6.5822,,,,,,6110ca6cdaa5a7f8064963e8,614919e7f00a54fff637fdd8,2021-09-20_17h32.06.544,Colour_Association_Experimentv1,2020.2.10,MacIntel,60,614813970c3839c5bfc24e99,,,,,2,0,2,0,1,,,,,,,
,,,,,,,,fast paced,9.8565,,,,,,6110ca6cdaa5a7f8064963e8,614919e7f00a54fff637fdd8,2021-09-20_17h32.06.544,Colour_Association_Experimentv1,2020.2.10,MacIntel,60,614813970c3839c5bfc24e99,,,,,3,0,3,0,1,,,,,,,
,,,,,,,,,1.1338,,,,,,6110ca6cdaa5a7f8064963e8,614919e7f00a54fff637fdd8,2021-09-20_17h32.06.544,Colour_Association_Experimentv1,2020.2.10,MacIntel,60,614813970c3839c5bfc24e99,,,,,4,0,4,0,1,,,,,,,
,,,,,,,,,,,,,,,6110ca6cdaa5a7f8064963e8,614919e7f00a54fff637fdd8,2021-09-20_17h32.06.544,Colour_Association_Experimentv1,2020.2.10,MacIntel,60,614813970c3839c5bfc24e99,,,3,FF,,,,,,space,0.728,0,3,3,2,1
,,,,,,,, anger,7.0305,,,,,,6110ca6cdaa5a7f8064963e8,614919e7f00a54fff637fdd8,2021-09-20_17h32.06.544,Colour_Association_Experimentv1,2020.2.10,MacIntel,60,614813970c3839c5bfc24e99,,,1,FF,0,0,0,0,1,,,,,,,
,,,,,,,,fast,5.1455,,,,,,6110ca6cdaa5a7f8064963e8,614919e7f00a54fff637fdd8,2021-09-20_17h32.06.544,Colour_Association_Experimentv1,2020.2.10,MacIntel,60,614813970c3839c5bfc24e99,,,,,1,0,1,0,1,,,,,,,
,,,,,,,,hard,10.0419,,,,,,6110ca6cdaa5a7f8064963e8,614919e7f00a54fff637fdd8,2021-09-20_17h32.06.544,Colour_Association_Experimentv1,2020.2.10,MacIntel,60,614813970c3839c5bfc24e99,,,,,2,0,2,0,1,,,,,,,
,,,,,,,,insisting,8.2516,,,,,,6110ca6cdaa5a7f8064963e8,614919e7f00a54fff637fdd8,2021-09-20_17h32.06.544,Colour_Association_Experimentv1,2020.2.10,MacIntel,60,614813970c3839c5bfc24e99,,,,,3,0,3,0,1,,,,,,,
,,,,,,,,,1.4849,,,,,,6110ca6cdaa5a7f8064963e8,614919e7f00a54fff637fdd8,2021-09-20_17h32.06.544,Colour_Association_Experimentv1,2020.2.10,MacIntel,60,614813970c3839c5bfc24e99,,,,,4,0,4,0,1,,,,,,,
,,,,,,,,,,,,,,,6110ca6cdaa5a7f8064963e8,614919e7f00a54fff637fdd8,2021-09-20_17h32.06.544,Colour_Association_Experimentv1,2020.2.10,MacIntel,60,614813970c3839c5bfc24e99,,,1,FF,,,,,,space,0.7082,0,4,4,0,1
,,,,,,,, neon,5.9116,,,,,,6110ca6cdaa5a7f8064963e8,614919e7f00a54fff637fdd8,2021-09-20_17h32.06.544,Colour_Association_Experimentv1,2020.2.10,MacIntel,60,614813970c3839c5bfc24e99,,,8,PF,0,0,0,0,1,,,,,,,
,,,,,,,,party,6.0628,,,,,,6110ca6cdaa5a7f8064963e8,614919e7f00a54fff637fdd8,2021-09-20_17h32.06.544,Colour_Association_Experimentv1,2020.2.10,MacIntel,60,614813970c3839c5bfc24e99,,,,,1,0,1,0,1,,,,,,,
,,,,,,,,lights,9.3551,,,,,,6110ca6cdaa5a7f8064963e8,614919e7f00a54fff637fdd8,2021-09-20_17h32.06.544,Colour_Association_Experimentv1,2020.2.10,MacIntel,60,614813970c3839c5bfc24e99,,,,,2,0,2,0,1,,,,,,,
,,,,,,,,excessive,9.8063,,,,,,6110ca6cdaa5a7f8064963e8,614919e7f00a54fff637fdd8,2021-09-20_17h32.06.544,Colour_Association_Experimentv1,2020.2.10,MacIntel,60,614813970c3839c5bfc24e99,,,,,3,0,3,0,1,,,,,,,
,,,,,,,,,1.3498,,,,,,6110ca6cdaa5a7f8064963e8,614919e7f00a54fff637fdd8,2021-09-20_17h32.06.544,Colour_Association_Experimentv1,2020.2.10,MacIntel,60,614813970c3839c5bfc24e99,,,,,4,0,4,0,1,,,,,,,
,,,,,,,,,,,,,,,6110ca6cdaa5a7f8064963e8,614919e7f00a54fff637fdd8,2021-09-20_17h32.06.544,Colour_Association_Experimentv1,2020.2.10,MacIntel,60,614813970c3839c5bfc24e99,,,8,PF,,,,,,space,0.6729,0,5,5,7,1
,,,,,,,, neon,25.5641,,,,,,6110ca6cdaa5a7f8064963e8,614919e7f00a54fff637fdd8,2021-09-20_17h32.06.544,Colour_Association_Experimentv1,2020.2.10,MacIntel,60,614813970c3839c5bfc24e99,,,4,PF,0,0,0,0,1,,,,,,,
,,,,,,,,shocking,12.161,,,,,,6110ca6cdaa5a7f8064963e8,614919e7f00a54fff637fdd8,2021-09-20_17h32.06.544,Colour_Association_Experimentv1,2020.2.10,MacIntel,60,614813970c3839c5bfc24e99,,,,,1,0,1,0,1,,,,,,,
,,,,,,,,bright,12.1143,,,,,,6110ca6cdaa5a7f8064963e8,614919e7f00a54fff637fdd8,2021-09-20_17h32.06.544,Colour_Association_Experimentv1,2020.2.10,MacIntel,60,614813970c3839c5bfc24e99,,,,,2,0,2,0,1,,,,,,,
,,,,,,,,,1.2176,,,,,,6110ca6cdaa5a7f8064963e8,614919e7f00a54fff637fdd8,2021-09-20_17h32.06.544,Colour_Association_Experimentv1,2020.2.10,MacIntel,60,614813970c3839c5bfc24e99,,,,,3,0,3,0,1,,,,,,,
,,,,,,,,,,,,,,,6110ca6cdaa5a7f8064963e8,614919e7f00a54fff637fdd8,2021-09-20_17h32.06.544,Colour_Association_Experimentv1,2020.2.10,MacIntel,60,614813970c3839c5bfc24e99,,,4,PF,,,,,,space,0.3356,0,6,6,3,1
,,,,,,,, fashionable,15.4042,,,,,,6110ca6cdaa5a7f8064963e8,614919e7f00a54fff637fdd8,2021-09-20_17h32.06.544,Colour_Association_Experimentv1,2020.2.10,MacIntel,60,614813970c3839c5bfc24e99,,,9,FF,0,0,0,0,1,,,,,,,
,,,,,,,,strong,6.8832,,,,,,6110ca6cdaa5a7f8064963e8,614919e7f00a54fff637fdd8,2021-09-20_17h32.06.544,Colour_Association_Experimentv1,2020.2.10,MacIntel,60,614813970c3839c5bfc24e99,,,,,1,0,1,0,1,,,,,,,
,,,,,,,,pushy,22.389,,,,,,6110ca6cdaa5a7f8064963e8,614919e7f00a54fff637fdd8,2021-09-20_17h32.06.544,Colour_Association_Experimentv1,2020.2.10,MacIntel,60,614813970c3839c5bfc24e99,,,,,2,0,2,0,1,,,,,,,
,,,,,,,,,1.2683,,,,,,6110ca6cdaa5a7f8064963e8,614919e7f00a54fff637fdd8,2021-09-20_17h32.06.544,Colour_Association_Experimentv1,2020.2.10,MacIntel,60,614813970c3839c5bfc24e99,,,,,3,0,3,0,1,,,,,,,
,,,,,,,,,,,,,,,6110ca6cdaa5a7f8064963e8,614919e7f00a54fff637fdd8,2021-09-20_17h32.06.544,Colour_Association_Experimentv1,2020.2.10,MacIntel,60,614813970c3839c5bfc24e99,,,9,FF,,,,,,space,0.7539,0,7,7,8,1
,,,,,,,, relaxing,3.9412,,,,,,6110ca6cdaa5a7f8064963e8,614919e7f00a54fff637fdd8,2021-09-20_17h32.06.544,Colour_Association_Experimentv1,2020.2.10,MacIntel,60,614813970c3839c5bfc24e99,,,5,FF,0,0,0,0,1,,,,,,,
,,,,,,,,easy,4.6421,,,,,,6110ca6cdaa5a7f8064963e8,614919e7f00a54fff637fdd8,2021-09-20_17h32.06.544,Colour_Association_Experimentv1,2020.2.10,MacIntel,60,614813970c3839c5bfc24e99,,,,,1,0,1,0,1,,,,,,,
,,,,,,,,good,4.1901,,,,,,6110ca6cdaa5a7f8064963e8,614919e7f00a54fff637fdd8,2021-09-20_17h32.06.544,Colour_Association_Experimentv1,2020.2.10,MacIntel,60,614813970c3839c5bfc24e99,,,,,2,0,2,0,1,,,,,,,
,,,,,,,,springtime,6.5171,,,,,,6110ca6cdaa5a7f8064963e8,614919e7f00a54fff637fdd8,2021-09-20_17h32.06.544,Colour_Association_Experimentv1,2020.2.10,MacIntel,60,614813970c3839c5bfc24e99,,,,,3,0,3,0,1,,,,,,,
,,,,,,,,plants,5.6801,,,,,,6110ca6cdaa5a7f8064963e8,614919e7f00a54fff637fdd8,2021-09-20_17h32.06.544,Colour_Association_Experimentv1,2020.2.10,MacIntel,60,614813970c3839c5bfc24e99,,,,,4,0,4,0,1,,,,,,,
,,,,,,,,,1.1147,,,,,,6110ca6cdaa5a7f8064963e8,614919e7f00a54fff637fdd8,2021-09-20_17h32.06.544,Colour_Association_Experimentv1,2020.2.10,MacIntel,60,614813970c3839c5bfc24e99,,,,,5,0,5,0,1,,,,,,,
,,,,,,,,,,,,,,,6110ca6cdaa5a7f8064963e8,614919e7f00a54fff637fdd8,2021-09-20_17h32.06.544,Colour_Association_Experimentv1,2020.2.10,MacIntel,60,614813970c3839c5bfc24e99,,,5,FF,,,,,,,,0,8,8,4,1
