key_resp.keys,key_resp.rt,key_resp_2.keys,key_resp_2.rt,key_resp_3.keys,key_resp_3.rt,key_resp_4.keys,key_resp_4.rt,inputText,rt,pracassoc.thisRepN,pracassoc.thisTrialN,pracassoc.thisN,pracassoc.thisIndex,pracassoc.ran,participant,session,date,expName,psychopyVersion,OS,frameRate,study_id,key_resp_6.keys,key_resp_6.rt,Colour1,Ecc,assocresponse.thisRepN,assocresponse.thisTrialN,assocresponse.thisN,assocresponse.thisIndex,assocresponse.ran,key_resp_5.keys,key_resp_5.rt,trials.thisRepN,trials.thisTrialN,trials.thisN,trials.thisIndex,trials.ran
space,2.8243,space,10.6323,space,8.9498,space,27.5099,  ,28.9632,0,0,0,0,1,61375d5886d9d6456d5be8da,6148189b1a5569760e8e88b0,2021-09-20_00h15.41.263,Colour_Association_Experimentv1,2020.2.10,Win32,60,614813970c3839c5bfc24e99,,,,,,,,,,,,,,,,
,,,,,,,,casual ,22.1727,1,0,1,0,1,61375d5886d9d6456d5be8da,6148189b1a5569760e8e88b0,2021-09-20_00h15.41.263,Colour_Association_Experimentv1,2020.2.10,Win32,60,614813970c3839c5bfc24e99,,,,,,,,,,,,,,,,
,,,,,,,,,3.1289,2,0,2,0,1,61375d5886d9d6456d5be8da,6148189b1a5569760e8e88b0,2021-09-20_00h15.41.263,Colour_Association_Experimentv1,2020.2.10,Win32,60,614813970c3839c5bfc24e99,,,,,,,,,,,,,,,,
,,,,,,,, royalty,14.6041,,,,,,61375d5886d9d6456d5be8da,6148189b1a5569760e8e88b0,2021-09-20_00h15.41.263,Colour_Association_Experimentv1,2020.2.10,Win32,60,614813970c3839c5bfc24e99,space,1.2591,8,PF,0,0,0,0,1,,,,,,,
,,,,,,,,,2.2129,,,,,,61375d5886d9d6456d5be8da,6148189b1a5569760e8e88b0,2021-09-20_00h15.41.263,Colour_Association_Experimentv1,2020.2.10,Win32,60,614813970c3839c5bfc24e99,,,,,1,0,1,0,1,,,,,,,
,,,,,,,,,,,,,,,61375d5886d9d6456d5be8da,6148189b1a5569760e8e88b0,2021-09-20_00h15.41.263,Colour_Association_Experimentv1,2020.2.10,Win32,60,614813970c3839c5bfc24e99,,,8,PF,,,,,,space,1.2203,0,0,0,7,1
,,,,,,,, technology,10.8905,,,,,,61375d5886d9d6456d5be8da,6148189b1a5569760e8e88b0,2021-09-20_00h15.41.263,Colour_Association_Experimentv1,2020.2.10,Win32,60,614813970c3839c5bfc24e99,,,6,PF,0,0,0,0,1,,,,,,,
,,,,,,,,startup business,13.093,,,,,,61375d5886d9d6456d5be8da,6148189b1a5569760e8e88b0,2021-09-20_00h15.41.263,Colour_Association_Experimentv1,2020.2.10,Win32,60,614813970c3839c5bfc24e99,,,,,1,0,1,0,1,,,,,,,
,,,,,,,,professoinalism,11.6441,,,,,,61375d5886d9d6456d5be8da,6148189b1a5569760e8e88b0,2021-09-20_00h15.41.263,Colour_Association_Experimentv1,2020.2.10,Win32,60,614813970c3839c5bfc24e99,,,,,2,0,2,0,1,,,,,,,
,,,,,,,,,5.4792,,,,,,61375d5886d9d6456d5be8da,6148189b1a5569760e8e88b0,2021-09-20_00h15.41.263,Colour_Association_Experimentv1,2020.2.10,Win32,60,614813970c3839c5bfc24e99,,,,,3,0,3,0,1,,,,,,,
,,,,,,,,,,,,,,,61375d5886d9d6456d5be8da,6148189b1a5569760e8e88b0,2021-09-20_00h15.41.263,Colour_Association_Experimentv1,2020.2.10,Win32,60,614813970c3839c5bfc24e99,,,6,PF,,,,,,space,0.1271,0,1,1,5,1
,,,,,,,, sustainability,14.9946,,,,,,61375d5886d9d6456d5be8da,6148189b1a5569760e8e88b0,2021-09-20_00h15.41.263,Colour_Association_Experimentv1,2020.2.10,Win32,60,614813970c3839c5bfc24e99,,,5,FF,0,0,0,0,1,,,,,,,
,,,,,,,,,10.2775,,,,,,61375d5886d9d6456d5be8da,6148189b1a5569760e8e88b0,2021-09-20_00h15.41.263,Colour_Association_Experimentv1,2020.2.10,Win32,60,614813970c3839c5bfc24e99,,,,,1,0,1,0,1,,,,,,,
,,,,,,,,,,,,,,,61375d5886d9d6456d5be8da,6148189b1a5569760e8e88b0,2021-09-20_00h15.41.263,Colour_Association_Experimentv1,2020.2.10,Win32,60,614813970c3839c5bfc24e99,,,5,FF,,,,,,space,2.2991,0,2,2,4,1
,,,,,,,, royalty,7.7089,,,,,,61375d5886d9d6456d5be8da,6148189b1a5569760e8e88b0,2021-09-20_00h15.41.263,Colour_Association_Experimentv1,2020.2.10,Win32,60,614813970c3839c5bfc24e99,,,1,FF,0,0,0,0,1,,,,,,,
,,,,,,,,blood,4.6793,,,,,,61375d5886d9d6456d5be8da,6148189b1a5569760e8e88b0,2021-09-20_00h15.41.263,Colour_Association_Experimentv1,2020.2.10,Win32,60,614813970c3839c5bfc24e99,,,,,1,0,1,0,1,,,,,,,
,,,,,,,,firm grip,10.8112,,,,,,61375d5886d9d6456d5be8da,6148189b1a5569760e8e88b0,2021-09-20_00h15.41.263,Colour_Association_Experimentv1,2020.2.10,Win32,60,614813970c3839c5bfc24e99,,,,,2,0,2,0,1,,,,,,,
,,,,,,,,action,4.3295,,,,,,61375d5886d9d6456d5be8da,6148189b1a5569760e8e88b0,2021-09-20_00h15.41.263,Colour_Association_Experimentv1,2020.2.10,Win32,60,614813970c3839c5bfc24e99,,,,,3,0,3,0,1,,,,,,,
,,,,,,,,old school,3.2804,,,,,,61375d5886d9d6456d5be8da,6148189b1a5569760e8e88b0,2021-09-20_00h15.41.263,Colour_Association_Experimentv1,2020.2.10,Win32,60,614813970c3839c5bfc24e99,,,,,4,0,4,0,1,,,,,,,
,,,,,,,,authentic,6.664,,,,,,61375d5886d9d6456d5be8da,6148189b1a5569760e8e88b0,2021-09-20_00h15.41.263,Colour_Association_Experimentv1,2020.2.10,Win32,60,614813970c3839c5bfc24e99,,,,,5,0,5,0,1,,,,,,,
,,,,,,,,serious,5.1624,,,,,,61375d5886d9d6456d5be8da,6148189b1a5569760e8e88b0,2021-09-20_00h15.41.263,Colour_Association_Experimentv1,2020.2.10,Win32,60,614813970c3839c5bfc24e99,,,,,6,0,6,0,1,,,,,,,
,,,,,,,,,1.6474,,,,,,61375d5886d9d6456d5be8da,6148189b1a5569760e8e88b0,2021-09-20_00h15.41.263,Colour_Association_Experimentv1,2020.2.10,Win32,60,614813970c3839c5bfc24e99,,,,,7,0,7,0,1,,,,,,,
,,,,,,,,,,,,,,,61375d5886d9d6456d5be8da,6148189b1a5569760e8e88b0,2021-09-20_00h15.41.263,Colour_Association_Experimentv1,2020.2.10,Win32,60,614813970c3839c5bfc24e99,,,1,FF,,,,,,space,0.4931,0,3,3,0,1
,,,,,,,, girlish,11.4243,,,,,,61375d5886d9d6456d5be8da,6148189b1a5569760e8e88b0,2021-09-20_00h15.41.263,Colour_Association_Experimentv1,2020.2.10,Win32,60,614813970c3839c5bfc24e99,,,9,FF,0,0,0,0,1,,,,,,,
,,,,,,,,baby,3.4603,,,,,,61375d5886d9d6456d5be8da,6148189b1a5569760e8e88b0,2021-09-20_00h15.41.263,Colour_Association_Experimentv1,2020.2.10,Win32,60,614813970c3839c5bfc24e99,,,,,1,0,1,0,1,,,,,,,
,,,,,,,,feminine,52.0669,,,,,,61375d5886d9d6456d5be8da,6148189b1a5569760e8e88b0,2021-09-20_00h15.41.263,Colour_Association_Experimentv1,2020.2.10,Win32,60,614813970c3839c5bfc24e99,,,,,2,0,2,0,1,,,,,,,
,,,,,,,,,88.4892,,,,,,61375d5886d9d6456d5be8da,6148189b1a5569760e8e88b0,2021-09-20_00h15.41.263,Colour_Association_Experimentv1,2020.2.10,Win32,60,614813970c3839c5bfc24e99,,,,,3,0,3,0,1,,,,,,,
,,,,,,,,,,,,,,,61375d5886d9d6456d5be8da,6148189b1a5569760e8e88b0,2021-09-20_00h15.41.263,Colour_Association_Experimentv1,2020.2.10,Win32,60,614813970c3839c5bfc24e99,,,9,FF,,,,,,space,0.4837,0,4,4,8,1
,,,,,,,, inbetween,15.5889,,,,,,61375d5886d9d6456d5be8da,6148189b1a5569760e8e88b0,2021-09-20_00h15.41.263,Colour_Association_Experimentv1,2020.2.10,Win32,60,614813970c3839c5bfc24e99,,,2,PF,0,0,0,0,1,,,,,,,
,,,,,,,,unserious,8.3451,,,,,,61375d5886d9d6456d5be8da,6148189b1a5569760e8e88b0,2021-09-20_00h15.41.263,Colour_Association_Experimentv1,2020.2.10,Win32,60,614813970c3839c5bfc24e99,,,,,1,0,1,0,1,,,,,,,
,,,,,,,,unsure,3.363,,,,,,61375d5886d9d6456d5be8da,6148189b1a5569760e8e88b0,2021-09-20_00h15.41.263,Colour_Association_Experimentv1,2020.2.10,Win32,60,614813970c3839c5bfc24e99,,,,,2,0,2,0,1,,,,,,,
,,,,,,,,friendly,3.1819,,,,,,61375d5886d9d6456d5be8da,6148189b1a5569760e8e88b0,2021-09-20_00h15.41.263,Colour_Association_Experimentv1,2020.2.10,Win32,60,614813970c3839c5bfc24e99,,,,,3,0,3,0,1,,,,,,,
,,,,,,,,smile,1.9471,,,,,,61375d5886d9d6456d5be8da,6148189b1a5569760e8e88b0,2021-09-20_00h15.41.263,Colour_Association_Experimentv1,2020.2.10,Win32,60,614813970c3839c5bfc24e99,,,,,4,0,4,0,1,,,,,,,
,,,,,,,,happy,2.4986,,,,,,61375d5886d9d6456d5be8da,6148189b1a5569760e8e88b0,2021-09-20_00h15.41.263,Colour_Association_Experimentv1,2020.2.10,Win32,60,614813970c3839c5bfc24e99,,,,,5,0,5,0,1,,,,,,,
,,,,,,,,,5.4311,,,,,,61375d5886d9d6456d5be8da,6148189b1a5569760e8e88b0,2021-09-20_00h15.41.263,Colour_Association_Experimentv1,2020.2.10,Win32,60,614813970c3839c5bfc24e99,,,,,6,0,6,0,1,,,,,,,
,,,,,,,,,,,,,,,61375d5886d9d6456d5be8da,6148189b1a5569760e8e88b0,2021-09-20_00h15.41.263,Colour_Association_Experimentv1,2020.2.10,Win32,60,614813970c3839c5bfc24e99,,,2,PF,,,,,,space,1.3098,0,5,5,1,1
,,,,,,,, plant,4.5593,,,,,,61375d5886d9d6456d5be8da,6148189b1a5569760e8e88b0,2021-09-20_00h15.41.263,Colour_Association_Experimentv1,2020.2.10,Win32,60,614813970c3839c5bfc24e99,,,3,FF,0,0,0,0,1,,,,,,,
,,,,,,,,sustainability,7.729,,,,,,61375d5886d9d6456d5be8da,6148189b1a5569760e8e88b0,2021-09-20_00h15.41.263,Colour_Association_Experimentv1,2020.2.10,Win32,60,614813970c3839c5bfc24e99,,,,,1,0,1,0,1,,,,,,,
,,,,,,,,agriculture,12.8105,,,,,,61375d5886d9d6456d5be8da,6148189b1a5569760e8e88b0,2021-09-20_00h15.41.263,Colour_Association_Experimentv1,2020.2.10,Win32,60,614813970c3839c5bfc24e99,,,,,2,0,2,0,1,,,,,,,
,,,,,,,,company,3.4964,,,,,,61375d5886d9d6456d5be8da,6148189b1a5569760e8e88b0,2021-09-20_00h15.41.263,Colour_Association_Experimentv1,2020.2.10,Win32,60,614813970c3839c5bfc24e99,,,,,3,0,3,0,1,,,,,,,
,,,,,,,,purpose,6.314,,,,,,61375d5886d9d6456d5be8da,6148189b1a5569760e8e88b0,2021-09-20_00h15.41.263,Colour_Association_Experimentv1,2020.2.10,Win32,60,614813970c3839c5bfc24e99,,,,,4,0,4,0,1,,,,,,,
,,,,,,,,,,,,,,,61375d5886d9d6456d5be8da,6148189b1a5569760e8e88b0,2021-09-20_00h15.41.263,Colour_Association_Experimentv1,2020.2.10,Win32,60,614813970c3839c5bfc24e99,,,3,FF,,,,,,space,0.6698,0,6,6,2,1
,,,,,,,, free gift,10.2209,,,,,,61375d5886d9d6456d5be8da,6148189b1a5569760e8e88b0,2021-09-20_00h15.41.263,Colour_Association_Experimentv1,2020.2.10,Win32,60,614813970c3839c5bfc24e99,,,7,FF,0,0,0,0,1,,,,,,,
,,,,,,,,good,4.3791,,,,,,61375d5886d9d6456d5be8da,6148189b1a5569760e8e88b0,2021-09-20_00h15.41.263,Colour_Association_Experimentv1,2020.2.10,Win32,60,614813970c3839c5bfc24e99,,,,,1,0,1,0,1,,,,,,,
,,,,,,,,happy,2.2801,,,,,,61375d5886d9d6456d5be8da,6148189b1a5569760e8e88b0,2021-09-20_00h15.41.263,Colour_Association_Experimentv1,2020.2.10,Win32,60,614813970c3839c5bfc24e99,,,,,2,0,2,0,1,,,,,,,
,,,,,,,,serious,3.2668,,,,,,61375d5886d9d6456d5be8da,6148189b1a5569760e8e88b0,2021-09-20_00h15.41.263,Colour_Association_Experimentv1,2020.2.10,Win32,60,614813970c3839c5bfc24e99,,,,,3,0,3,0,1,,,,,,,
,,,,,,,,,4.6118,,,,,,61375d5886d9d6456d5be8da,6148189b1a5569760e8e88b0,2021-09-20_00h15.41.263,Colour_Association_Experimentv1,2020.2.10,Win32,60,614813970c3839c5bfc24e99,,,,,4,0,4,0,1,,,,,,,
,,,,,,,,,,,,,,,61375d5886d9d6456d5be8da,6148189b1a5569760e8e88b0,2021-09-20_00h15.41.263,Colour_Association_Experimentv1,2020.2.10,Win32,60,614813970c3839c5bfc24e99,,,7,FF,,,,,,space,2.9955,0,7,7,6,1
,,,,,,,, company,5.1086,,,,,,61375d5886d9d6456d5be8da,6148189b1a5569760e8e88b0,2021-09-20_00h15.41.263,Colour_Association_Experimentv1,2020.2.10,Win32,60,614813970c3839c5bfc24e99,,,4,PF,0,0,0,0,1,,,,,,,
,,,,,,,,plant,1.7805,,,,,,61375d5886d9d6456d5be8da,6148189b1a5569760e8e88b0,2021-09-20_00h15.41.263,Colour_Association_Experimentv1,2020.2.10,Win32,60,614813970c3839c5bfc24e99,,,,,1,0,1,0,1,,,,,,,
,,,,,,,,agriculture,5.631,,,,,,61375d5886d9d6456d5be8da,6148189b1a5569760e8e88b0,2021-09-20_00h15.41.263,Colour_Association_Experimentv1,2020.2.10,Win32,60,614813970c3839c5bfc24e99,,,,,2,0,2,0,1,,,,,,,
,,,,,,,,firm,6.7791,,,,,,61375d5886d9d6456d5be8da,6148189b1a5569760e8e88b0,2021-09-20_00h15.41.263,Colour_Association_Experimentv1,2020.2.10,Win32,60,614813970c3839c5bfc24e99,,,,,3,0,3,0,1,,,,,,,
,,,,,,,,growth,3.2134,,,,,,61375d5886d9d6456d5be8da,6148189b1a5569760e8e88b0,2021-09-20_00h15.41.263,Colour_Association_Experimentv1,2020.2.10,Win32,60,614813970c3839c5bfc24e99,,,,,4,0,4,0,1,,,,,,,
,,,,,,,,susyaianbility,5.313,,,,,,61375d5886d9d6456d5be8da,6148189b1a5569760e8e88b0,2021-09-20_00h15.41.263,Colour_Association_Experimentv1,2020.2.10,Win32,60,614813970c3839c5bfc24e99,,,,,5,0,5,0,1,,,,,,,
,,,,,,,,welcome,3.0314,,,,,,61375d5886d9d6456d5be8da,6148189b1a5569760e8e88b0,2021-09-20_00h15.41.263,Colour_Association_Experimentv1,2020.2.10,Win32,60,614813970c3839c5bfc24e99,,,,,6,0,6,0,1,,,,,,,
,,,,,,,,,1.6284,,,,,,61375d5886d9d6456d5be8da,6148189b1a5569760e8e88b0,2021-09-20_00h15.41.263,Colour_Association_Experimentv1,2020.2.10,Win32,60,614813970c3839c5bfc24e99,,,,,7,0,7,0,1,,,,,,,
,,,,,,,,,,,,,,,61375d5886d9d6456d5be8da,6148189b1a5569760e8e88b0,2021-09-20_00h15.41.263,Colour_Association_Experimentv1,2020.2.10,Win32,60,614813970c3839c5bfc24e99,,,4,PF,,,,,,,,0,8,8,3,1
