key_resp.keys,key_resp.rt,key_resp_2.keys,key_resp_2.rt,key_resp_3.keys,key_resp_3.rt,key_resp_4.keys,key_resp_4.rt,inputText,rt,pracassoc.thisRepN,pracassoc.thisTrialN,pracassoc.thisN,pracassoc.thisIndex,pracassoc.ran,participant,session,date,expName,psychopyVersion,OS,frameRate,study_id,key_resp_6.keys,key_resp_6.rt,Colour1,Ecc,assocresponse.thisRepN,assocresponse.thisTrialN,assocresponse.thisN,assocresponse.thisIndex,assocresponse.ran,key_resp_5.keys,key_resp_5.rt,trials.thisRepN,trials.thisTrialN,trials.thisN,trials.thisIndex,trials.ran
space,7.3794,space,13.6732,space,18.9626,space,25.0547,happy,60.3887,0,0,0,0,1,61381fc0024ffe24683c2784,61481b2f9d3e19bbbb20aed2,2021-09-20_00h25.19.957,Colour_Association_Experimentv1,2020.2.10,MacIntel,60,614813970c3839c5bfc24e99,,,,,,,,,,,,,,,,
,,,,,,,,smile,2.1136,1,0,1,0,1,61381fc0024ffe24683c2784,61481b2f9d3e19bbbb20aed2,2021-09-20_00h25.19.957,Colour_Association_Experimentv1,2020.2.10,MacIntel,60,614813970c3839c5bfc24e99,,,,,,,,,,,,,,,,
,,,,,,,,yeollow,4.5159,2,0,2,0,1,61381fc0024ffe24683c2784,61481b2f9d3e19bbbb20aed2,2021-09-20_00h25.19.957,Colour_Association_Experimentv1,2020.2.10,MacIntel,60,614813970c3839c5bfc24e99,,,,,,,,,,,,,,,,
,,,,,,,,nice,5.013,3,0,3,0,1,61381fc0024ffe24683c2784,61481b2f9d3e19bbbb20aed2,2021-09-20_00h25.19.957,Colour_Association_Experimentv1,2020.2.10,MacIntel,60,614813970c3839c5bfc24e99,,,,,,,,,,,,,,,,
,,,,,,,,o,26.3318,4,0,4,0,1,61381fc0024ffe24683c2784,61481b2f9d3e19bbbb20aed2,2021-09-20_00h25.19.957,Colour_Association_Experimentv1,2020.2.10,MacIntel,60,614813970c3839c5bfc24e99,,,,,,,,,,,,,,,,
,,,,,,,, serious,13.6303,,,,,,61381fc0024ffe24683c2784,61481b2f9d3e19bbbb20aed2,2021-09-20_00h25.19.957,Colour_Association_Experimentv1,2020.2.10,MacIntel,60,614813970c3839c5bfc24e99,space,4.0272,7,FF,0,0,0,0,1,,,,,,,
,,,,,,,,waves,10.4462,,,,,,61381fc0024ffe24683c2784,61481b2f9d3e19bbbb20aed2,2021-09-20_00h25.19.957,Colour_Association_Experimentv1,2020.2.10,MacIntel,60,614813970c3839c5bfc24e99,,,,,1,0,1,0,1,,,,,,,
,,,,,,,,blu,4.0804,,,,,,61381fc0024ffe24683c2784,61481b2f9d3e19bbbb20aed2,2021-09-20_00h25.19.957,Colour_Association_Experimentv1,2020.2.10,MacIntel,60,614813970c3839c5bfc24e99,,,,,2,0,2,0,1,,,,,,,
,,,,,,,,,6.4805,,,,,,61381fc0024ffe24683c2784,61481b2f9d3e19bbbb20aed2,2021-09-20_00h25.19.957,Colour_Association_Experimentv1,2020.2.10,MacIntel,60,614813970c3839c5bfc24e99,,,,,4,0,4,0,1,,,,,,,
,,,,,,,,,,,,,,,61381fc0024ffe24683c2784,61481b2f9d3e19bbbb20aed2,2021-09-20_00h25.19.957,Colour_Association_Experimentv1,2020.2.10,MacIntel,60,614813970c3839c5bfc24e99,,,7,FF,,,,,,space,2.2559,0,0,0,6,1
,,,,,,,, pinky,7.047,,,,,,61381fc0024ffe24683c2784,61481b2f9d3e19bbbb20aed2,2021-09-20_00h25.19.957,Colour_Association_Experimentv1,2020.2.10,MacIntel,60,614813970c3839c5bfc24e99,,,9,FF,0,0,0,0,1,,,,,,,
,,,,,,,,fashion,4.2646,,,,,,61381fc0024ffe24683c2784,61481b2f9d3e19bbbb20aed2,2021-09-20_00h25.19.957,Colour_Association_Experimentv1,2020.2.10,MacIntel,60,614813970c3839c5bfc24e99,,,,,1,0,1,0,1,,,,,,,
,,,,,,,,trend,3.0132,,,,,,61381fc0024ffe24683c2784,61481b2f9d3e19bbbb20aed2,2021-09-20_00h25.19.957,Colour_Association_Experimentv1,2020.2.10,MacIntel,60,614813970c3839c5bfc24e99,,,,,2,0,2,0,1,,,,,,,
,,,,,,,,cute,7.016,,,,,,61381fc0024ffe24683c2784,61481b2f9d3e19bbbb20aed2,2021-09-20_00h25.19.957,Colour_Association_Experimentv1,2020.2.10,MacIntel,60,614813970c3839c5bfc24e99,,,,,3,0,3,0,1,,,,,,,
,,,,,,,,barbie,9.5645,,,,,,61381fc0024ffe24683c2784,61481b2f9d3e19bbbb20aed2,2021-09-20_00h25.19.957,Colour_Association_Experimentv1,2020.2.10,MacIntel,60,614813970c3839c5bfc24e99,,,,,4,0,4,0,1,,,,,,,
,,,,,,,,,18.4819,,,,,,61381fc0024ffe24683c2784,61481b2f9d3e19bbbb20aed2,2021-09-20_00h25.19.957,Colour_Association_Experimentv1,2020.2.10,MacIntel,60,614813970c3839c5bfc24e99,,,,,5,0,5,0,1,,,,,,,
,,,,,,,,,,,,,,,61381fc0024ffe24683c2784,61481b2f9d3e19bbbb20aed2,2021-09-20_00h25.19.957,Colour_Association_Experimentv1,2020.2.10,MacIntel,60,614813970c3839c5bfc24e99,,,9,FF,,,,,,space,0.2303,0,1,1,8,1
,,,,,,,, peace,4.4152,,,,,,61381fc0024ffe24683c2784,61481b2f9d3e19bbbb20aed2,2021-09-20_00h25.19.957,Colour_Association_Experimentv1,2020.2.10,MacIntel,60,614813970c3839c5bfc24e99,,,6,PF,0,0,0,0,1,,,,,,,
,,,,,,,,light,10.3655,,,,,,61381fc0024ffe24683c2784,61481b2f9d3e19bbbb20aed2,2021-09-20_00h25.19.957,Colour_Association_Experimentv1,2020.2.10,MacIntel,60,614813970c3839c5bfc24e99,,,,,1,0,1,0,1,,,,,,,
,,,,,,,,comfortable,15.8136,,,,,,61381fc0024ffe24683c2784,61481b2f9d3e19bbbb20aed2,2021-09-20_00h25.19.957,Colour_Association_Experimentv1,2020.2.10,MacIntel,60,614813970c3839c5bfc24e99,,,,,2,0,2,0,1,,,,,,,
,,,,,,,,safe,3.8145,,,,,,61381fc0024ffe24683c2784,61481b2f9d3e19bbbb20aed2,2021-09-20_00h25.19.957,Colour_Association_Experimentv1,2020.2.10,MacIntel,60,614813970c3839c5bfc24e99,,,,,3,0,3,0,1,,,,,,,
,,,,,,,,clouds,5.9156,,,,,,61381fc0024ffe24683c2784,61481b2f9d3e19bbbb20aed2,2021-09-20_00h25.19.957,Colour_Association_Experimentv1,2020.2.10,MacIntel,60,614813970c3839c5bfc24e99,,,,,4,0,4,0,1,,,,,,,
,,,,,,,,sky,2.198,,,,,,61381fc0024ffe24683c2784,61481b2f9d3e19bbbb20aed2,2021-09-20_00h25.19.957,Colour_Association_Experimentv1,2020.2.10,MacIntel,60,614813970c3839c5bfc24e99,,,,,5,0,5,0,1,,,,,,,
,,,,,,,,light,7.8491,,,,,,61381fc0024ffe24683c2784,61481b2f9d3e19bbbb20aed2,2021-09-20_00h25.19.957,Colour_Association_Experimentv1,2020.2.10,MacIntel,60,614813970c3839c5bfc24e99,,,,,6,0,6,0,1,,,,,,,
,,,,,,,,,2.7814,,,,,,61381fc0024ffe24683c2784,61481b2f9d3e19bbbb20aed2,2021-09-20_00h25.19.957,Colour_Association_Experimentv1,2020.2.10,MacIntel,60,614813970c3839c5bfc24e99,,,,,7,0,7,0,1,,,,,,,
,,,,,,,,,,,,,,,61381fc0024ffe24683c2784,61481b2f9d3e19bbbb20aed2,2021-09-20_00h25.19.957,Colour_Association_Experimentv1,2020.2.10,MacIntel,60,614813970c3839c5bfc24e99,,,6,PF,,,,,,space,0.3391,0,2,2,5,1
,,,,,,,, precaution,6.7465,,,,,,61381fc0024ffe24683c2784,61481b2f9d3e19bbbb20aed2,2021-09-20_00h25.19.957,Colour_Association_Experimentv1,2020.2.10,MacIntel,60,614813970c3839c5bfc24e99,,,1,FF,0,0,0,0,1,,,,,,,
,,,,,,,,stop,1.548,,,,,,61381fc0024ffe24683c2784,61481b2f9d3e19bbbb20aed2,2021-09-20_00h25.19.957,Colour_Association_Experimentv1,2020.2.10,MacIntel,60,614813970c3839c5bfc24e99,,,,,1,0,1,0,1,,,,,,,
,,,,,,,,lights,5.4978,,,,,,61381fc0024ffe24683c2784,61481b2f9d3e19bbbb20aed2,2021-09-20_00h25.19.957,Colour_Association_Experimentv1,2020.2.10,MacIntel,60,614813970c3839c5bfc24e99,,,,,2,0,2,0,1,,,,,,,
,,,,,,,,car,3.6647,,,,,,61381fc0024ffe24683c2784,61481b2f9d3e19bbbb20aed2,2021-09-20_00h25.19.957,Colour_Association_Experimentv1,2020.2.10,MacIntel,60,614813970c3839c5bfc24e99,,,,,3,0,3,0,1,,,,,,,
,,,,,,,,insecure,20.3645,,,,,,61381fc0024ffe24683c2784,61481b2f9d3e19bbbb20aed2,2021-09-20_00h25.19.957,Colour_Association_Experimentv1,2020.2.10,MacIntel,60,614813970c3839c5bfc24e99,,,,,4,0,4,0,1,,,,,,,
,,,,,,,,,20.9808,,,,,,61381fc0024ffe24683c2784,61481b2f9d3e19bbbb20aed2,2021-09-20_00h25.19.957,Colour_Association_Experimentv1,2020.2.10,MacIntel,60,614813970c3839c5bfc24e99,,,,,5,0,5,0,1,,,,,,,
,,,,,,,,,,,,,,,61381fc0024ffe24683c2784,61481b2f9d3e19bbbb20aed2,2021-09-20_00h25.19.957,Colour_Association_Experimentv1,2020.2.10,MacIntel,60,614813970c3839c5bfc24e99,,,1,FF,,,,,,space,0.1863,0,3,3,0,1
,,,,,,,, halloween,6.2311,,,,,,61381fc0024ffe24683c2784,61481b2f9d3e19bbbb20aed2,2021-09-20_00h25.19.957,Colour_Association_Experimentv1,2020.2.10,MacIntel,60,614813970c3839c5bfc24e99,,,8,PF,0,0,0,0,1,,,,,,,
,,,,,,,,witch,2.0814,,,,,,61381fc0024ffe24683c2784,61481b2f9d3e19bbbb20aed2,2021-09-20_00h25.19.957,Colour_Association_Experimentv1,2020.2.10,MacIntel,60,614813970c3839c5bfc24e99,,,,,1,0,1,0,1,,,,,,,
,,,,,,,,candy,5.9317,,,,,,61381fc0024ffe24683c2784,61481b2f9d3e19bbbb20aed2,2021-09-20_00h25.19.957,Colour_Association_Experimentv1,2020.2.10,MacIntel,60,614813970c3839c5bfc24e99,,,,,2,0,2,0,1,,,,,,,
,,,,,,,,flowers,12.6813,,,,,,61381fc0024ffe24683c2784,61481b2f9d3e19bbbb20aed2,2021-09-20_00h25.19.957,Colour_Association_Experimentv1,2020.2.10,MacIntel,60,614813970c3839c5bfc24e99,,,,,3,0,3,0,1,,,,,,,
,,,,,,,,unique,24.5973,,,,,,61381fc0024ffe24683c2784,61481b2f9d3e19bbbb20aed2,2021-09-20_00h25.19.957,Colour_Association_Experimentv1,2020.2.10,MacIntel,60,614813970c3839c5bfc24e99,,,,,4,0,4,0,1,,,,,,,
,,,,,,,,,9.6646,,,,,,61381fc0024ffe24683c2784,61481b2f9d3e19bbbb20aed2,2021-09-20_00h25.19.957,Colour_Association_Experimentv1,2020.2.10,MacIntel,60,614813970c3839c5bfc24e99,,,,,5,0,5,0,1,,,,,,,
,,,,,,,,,,,,,,,61381fc0024ffe24683c2784,61481b2f9d3e19bbbb20aed2,2021-09-20_00h25.19.957,Colour_Association_Experimentv1,2020.2.10,MacIntel,60,614813970c3839c5bfc24e99,,,8,PF,,,,,,space,0.8577,0,4,4,7,1
,,,,,,,, lime,5.3645,,,,,,61381fc0024ffe24683c2784,61481b2f9d3e19bbbb20aed2,2021-09-20_00h25.19.957,Colour_Association_Experimentv1,2020.2.10,MacIntel,60,614813970c3839c5bfc24e99,,,3,FF,0,0,0,0,1,,,,,,,
,,,,,,,,slime,2.6132,,,,,,61381fc0024ffe24683c2784,61481b2f9d3e19bbbb20aed2,2021-09-20_00h25.19.957,Colour_Association_Experimentv1,2020.2.10,MacIntel,60,614813970c3839c5bfc24e99,,,,,1,0,1,0,1,,,,,,,
,,,,,,,,weird,3.6822,,,,,,61381fc0024ffe24683c2784,61481b2f9d3e19bbbb20aed2,2021-09-20_00h25.19.957,Colour_Association_Experimentv1,2020.2.10,MacIntel,60,614813970c3839c5bfc24e99,,,,,2,0,2,0,1,,,,,,,
,,,,,,,,attention,11.3315,,,,,,61381fc0024ffe24683c2784,61481b2f9d3e19bbbb20aed2,2021-09-20_00h25.19.957,Colour_Association_Experimentv1,2020.2.10,MacIntel,60,614813970c3839c5bfc24e99,,,,,3,0,3,0,1,,,,,,,
,,,,,,,,striking,27.5804,,,,,,61381fc0024ffe24683c2784,61481b2f9d3e19bbbb20aed2,2021-09-20_00h25.19.957,Colour_Association_Experimentv1,2020.2.10,MacIntel,60,614813970c3839c5bfc24e99,,,,,4,0,4,0,1,,,,,,,
,,,,,,,,aliens,11.0484,,,,,,61381fc0024ffe24683c2784,61481b2f9d3e19bbbb20aed2,2021-09-20_00h25.19.957,Colour_Association_Experimentv1,2020.2.10,MacIntel,60,614813970c3839c5bfc24e99,,,,,5,0,5,0,1,,,,,,,
,,,,,,,,space,3.2303,,,,,,61381fc0024ffe24683c2784,61481b2f9d3e19bbbb20aed2,2021-09-20_00h25.19.957,Colour_Association_Experimentv1,2020.2.10,MacIntel,60,614813970c3839c5bfc24e99,,,,,6,0,6,0,1,,,,,,,
,,,,,,,,,7.6339,,,,,,61381fc0024ffe24683c2784,61481b2f9d3e19bbbb20aed2,2021-09-20_00h25.19.957,Colour_Association_Experimentv1,2020.2.10,MacIntel,60,614813970c3839c5bfc24e99,,,,,7,0,7,0,1,,,,,,,
,,,,,,,,,,,,,,,61381fc0024ffe24683c2784,61481b2f9d3e19bbbb20aed2,2021-09-20_00h25.19.957,Colour_Association_Experimentv1,2020.2.10,MacIntel,60,614813970c3839c5bfc24e99,,,3,FF,,,,,,space,0.0209,0,5,5,2,1
,,,,,,,, shrek,10.2788,,,,,,61381fc0024ffe24683c2784,61481b2f9d3e19bbbb20aed2,2021-09-20_00h25.19.957,Colour_Association_Experimentv1,2020.2.10,MacIntel,60,614813970c3839c5bfc24e99,,,5,FF,0,0,0,0,1,,,,,,,
,,,,,,,,lemon,11.3479,,,,,,61381fc0024ffe24683c2784,61481b2f9d3e19bbbb20aed2,2021-09-20_00h25.19.957,Colour_Association_Experimentv1,2020.2.10,MacIntel,60,614813970c3839c5bfc24e99,,,,,1,0,1,0,1,,,,,,,
,,,,,,,,different,12.9312,,,,,,61381fc0024ffe24683c2784,61481b2f9d3e19bbbb20aed2,2021-09-20_00h25.19.957,Colour_Association_Experimentv1,2020.2.10,MacIntel,60,614813970c3839c5bfc24e99,,,,,2,0,2,0,1,,,,,,,
,,,,,,,,,11.798,,,,,,61381fc0024ffe24683c2784,61481b2f9d3e19bbbb20aed2,2021-09-20_00h25.19.957,Colour_Association_Experimentv1,2020.2.10,MacIntel,60,614813970c3839c5bfc24e99,,,,,3,0,3,0,1,,,,,,,
,,,,,,,,,,,,,,,61381fc0024ffe24683c2784,61481b2f9d3e19bbbb20aed2,2021-09-20_00h25.19.957,Colour_Association_Experimentv1,2020.2.10,MacIntel,60,614813970c3839c5bfc24e99,,,5,FF,,,,,,space,0.4061,0,6,6,4,1
,,,,,,,, cheese,3.0121,,,,,,61381fc0024ffe24683c2784,61481b2f9d3e19bbbb20aed2,2021-09-20_00h25.19.957,Colour_Association_Experimentv1,2020.2.10,MacIntel,60,614813970c3839c5bfc24e99,,,2,PF,0,0,0,0,1,,,,,,,
,,,,,,,,mustard,13.049,,,,,,61381fc0024ffe24683c2784,61481b2f9d3e19bbbb20aed2,2021-09-20_00h25.19.957,Colour_Association_Experimentv1,2020.2.10,MacIntel,60,614813970c3839c5bfc24e99,,,,,1,0,1,0,1,,,,,,,
,,,,,,,,food,4.3823,,,,,,61381fc0024ffe24683c2784,61481b2f9d3e19bbbb20aed2,2021-09-20_00h25.19.957,Colour_Association_Experimentv1,2020.2.10,MacIntel,60,614813970c3839c5bfc24e99,,,,,2,0,2,0,1,,,,,,,
,,,,,,,,eat,4.6309,,,,,,61381fc0024ffe24683c2784,61481b2f9d3e19bbbb20aed2,2021-09-20_00h25.19.957,Colour_Association_Experimentv1,2020.2.10,MacIntel,60,614813970c3839c5bfc24e99,,,,,3,0,3,0,1,,,,,,,
,,,,,,,,mcdonalds,4.8476,,,,,,61381fc0024ffe24683c2784,61481b2f9d3e19bbbb20aed2,2021-09-20_00h25.19.957,Colour_Association_Experimentv1,2020.2.10,MacIntel,60,614813970c3839c5bfc24e99,,,,,4,0,4,0,1,,,,,,,
,,,,,,,,delicious,5.798,,,,,,61381fc0024ffe24683c2784,61481b2f9d3e19bbbb20aed2,2021-09-20_00h25.19.957,Colour_Association_Experimentv1,2020.2.10,MacIntel,60,614813970c3839c5bfc24e99,,,,,5,0,5,0,1,,,,,,,
,,,,,,,,favorite,7.831,,,,,,61381fc0024ffe24683c2784,61481b2f9d3e19bbbb20aed2,2021-09-20_00h25.19.957,Colour_Association_Experimentv1,2020.2.10,MacIntel,60,614813970c3839c5bfc24e99,,,,,6,0,6,0,1,,,,,,,
,,,,,,,,stars,1.8136,,,,,,61381fc0024ffe24683c2784,61481b2f9d3e19bbbb20aed2,2021-09-20_00h25.19.957,Colour_Association_Experimentv1,2020.2.10,MacIntel,60,614813970c3839c5bfc24e99,,,,,7,0,7,0,1,,,,,,,
,,,,,,,,,11.8831,,,,,,61381fc0024ffe24683c2784,61481b2f9d3e19bbbb20aed2,2021-09-20_00h25.19.957,Colour_Association_Experimentv1,2020.2.10,MacIntel,60,614813970c3839c5bfc24e99,,,,,8,0,8,0,1,,,,,,,
,,,,,,,,,,,,,,,61381fc0024ffe24683c2784,61481b2f9d3e19bbbb20aed2,2021-09-20_00h25.19.957,Colour_Association_Experimentv1,2020.2.10,MacIntel,60,614813970c3839c5bfc24e99,,,2,PF,,,,,,space,0.0549,0,7,7,1,1
,,,,,,,, aliens,3.9464,,,,,,61381fc0024ffe24683c2784,61481b2f9d3e19bbbb20aed2,2021-09-20_00h25.19.957,Colour_Association_Experimentv1,2020.2.10,MacIntel,60,614813970c3839c5bfc24e99,,,4,PF,0,0,0,0,1,,,,,,,
,,,,,,,,trendy,13.9805,,,,,,61381fc0024ffe24683c2784,61481b2f9d3e19bbbb20aed2,2021-09-20_00h25.19.957,Colour_Association_Experimentv1,2020.2.10,MacIntel,60,614813970c3839c5bfc24e99,,,,,1,0,1,0,1,,,,,,,
,,,,,,,,clothes,2.7158,,,,,,61381fc0024ffe24683c2784,61481b2f9d3e19bbbb20aed2,2021-09-20_00h25.19.957,Colour_Association_Experimentv1,2020.2.10,MacIntel,60,614813970c3839c5bfc24e99,,,,,2,0,2,0,1,,,,,,,
,,,,,,,,cool,37.2322,,,,,,61381fc0024ffe24683c2784,61481b2f9d3e19bbbb20aed2,2021-09-20_00h25.19.957,Colour_Association_Experimentv1,2020.2.10,MacIntel,60,614813970c3839c5bfc24e99,,,,,3,0,3,0,1,,,,,,,
,,,,,,,,,5.8474,,,,,,61381fc0024ffe24683c2784,61481b2f9d3e19bbbb20aed2,2021-09-20_00h25.19.957,Colour_Association_Experimentv1,2020.2.10,MacIntel,60,614813970c3839c5bfc24e99,,,,,4,0,4,0,1,,,,,,,
,,,,,,,,,,,,,,,61381fc0024ffe24683c2784,61481b2f9d3e19bbbb20aed2,2021-09-20_00h25.19.957,Colour_Association_Experimentv1,2020.2.10,MacIntel,60,614813970c3839c5bfc24e99,,,4,PF,,,,,,,,0,8,8,3,1
