key_resp.keys,key_resp.rt,key_resp_2.keys,key_resp_2.rt,key_resp_3.keys,key_resp_3.rt,key_resp_4.keys,key_resp_4.rt,inputText,rt,pracassoc.thisRepN,pracassoc.thisTrialN,pracassoc.thisN,pracassoc.thisIndex,pracassoc.ran,participant,session,date,expName,psychopyVersion,OS,frameRate,study_id,key_resp_6.keys,key_resp_6.rt,Colour1,Ecc,assocresponse.thisRepN,assocresponse.thisTrialN,assocresponse.thisN,assocresponse.thisIndex,assocresponse.ran,key_resp_5.keys,key_resp_5.rt,trials.thisRepN,trials.thisTrialN,trials.thisN,trials.thisIndex,trials.ran
space,1.3648,space,6.6341,space,7.8546,space,12.0257, sun,5.0342,0,0,0,0,1,61391e597dbe122a2dffb914,614814f5b300312d81cbd969,2021-09-20_00h58.43.365,Colour_Association_Experimentv1,2020.2.10,MacIntel,60,614813970c3839c5bfc24e99,,,,,,,,,,,,,,,,
,,,,,,,,happy,3.4056,1,0,1,0,1,61391e597dbe122a2dffb914,614814f5b300312d81cbd969,2021-09-20_00h58.43.365,Colour_Association_Experimentv1,2020.2.10,MacIntel,60,614813970c3839c5bfc24e99,,,,,,,,,,,,,,,,
,,,,,,,,mellow,3.4393,2,0,2,0,1,61391e597dbe122a2dffb914,614814f5b300312d81cbd969,2021-09-20_00h58.43.365,Colour_Association_Experimentv1,2020.2.10,MacIntel,60,614813970c3839c5bfc24e99,,,,,,,,,,,,,,,,
,,,,,,,,lemon,2.5563,3,0,3,0,1,61391e597dbe122a2dffb914,614814f5b300312d81cbd969,2021-09-20_00h58.43.365,Colour_Association_Experimentv1,2020.2.10,MacIntel,60,614813970c3839c5bfc24e99,,,,,,,,,,,,,,,,
,,,,,,,,towel,20.6021,4,0,4,0,1,61391e597dbe122a2dffb914,614814f5b300312d81cbd969,2021-09-20_00h58.43.365,Colour_Association_Experimentv1,2020.2.10,MacIntel,60,614813970c3839c5bfc24e99,,,,,,,,,,,,,,,,
,,,,,,,,,4.409,5,0,5,0,1,61391e597dbe122a2dffb914,614814f5b300312d81cbd969,2021-09-20_00h58.43.365,Colour_Association_Experimentv1,2020.2.10,MacIntel,60,614813970c3839c5bfc24e99,,,,,,,,,,,,,,,,
,,,,,,,, sad,2.2822,,,,,,61391e597dbe122a2dffb914,614814f5b300312d81cbd969,2021-09-20_00h58.43.365,Colour_Association_Experimentv1,2020.2.10,MacIntel,60,614813970c3839c5bfc24e99,space,2.1119,6,PF,0,0,0,0,1,,,,,,,
,,,,,,,,curtain,3.7608,,,,,,61391e597dbe122a2dffb914,614814f5b300312d81cbd969,2021-09-20_00h58.43.365,Colour_Association_Experimentv1,2020.2.10,MacIntel,60,614813970c3839c5bfc24e99,,,,,1,0,1,0,1,,,,,,,
,,,,,,,,ocean,1.3319,,,,,,61391e597dbe122a2dffb914,614814f5b300312d81cbd969,2021-09-20_00h58.43.365,Colour_Association_Experimentv1,2020.2.10,MacIntel,60,614813970c3839c5bfc24e99,,,,,2,0,2,0,1,,,,,,,
,,,,,,,,blues clues,5.548,,,,,,61391e597dbe122a2dffb914,614814f5b300312d81cbd969,2021-09-20_00h58.43.365,Colour_Association_Experimentv1,2020.2.10,MacIntel,60,614813970c3839c5bfc24e99,,,,,3,0,3,0,1,,,,,,,
,,,,,,,,royal,7.2668,,,,,,61391e597dbe122a2dffb914,614814f5b300312d81cbd969,2021-09-20_00h58.43.365,Colour_Association_Experimentv1,2020.2.10,MacIntel,60,614813970c3839c5bfc24e99,,,,,4,0,4,0,1,,,,,,,
,,,,,,,,blueberry,10.9449,,,,,,61391e597dbe122a2dffb914,614814f5b300312d81cbd969,2021-09-20_00h58.43.365,Colour_Association_Experimentv1,2020.2.10,MacIntel,60,614813970c3839c5bfc24e99,,,,,5,0,5,0,1,,,,,,,
,,,,,,,,,1.4681,,,,,,61391e597dbe122a2dffb914,614814f5b300312d81cbd969,2021-09-20_00h58.43.365,Colour_Association_Experimentv1,2020.2.10,MacIntel,60,614813970c3839c5bfc24e99,,,,,6,0,6,0,1,,,,,,,
,,,,,,,,,,,,,,,61391e597dbe122a2dffb914,614814f5b300312d81cbd969,2021-09-20_00h58.43.365,Colour_Association_Experimentv1,2020.2.10,MacIntel,60,614813970c3839c5bfc24e99,,,6,PF,,,,,,space,0.304,0,0,0,5,1
,,,,,,,, sharpie,4.0404,,,,,,61391e597dbe122a2dffb914,614814f5b300312d81cbd969,2021-09-20_00h58.43.365,Colour_Association_Experimentv1,2020.2.10,MacIntel,60,614813970c3839c5bfc24e99,,,9,FF,0,0,0,0,1,,,,,,,
,,,,,,,,magenta,9.6883,,,,,,61391e597dbe122a2dffb914,614814f5b300312d81cbd969,2021-09-20_00h58.43.365,Colour_Association_Experimentv1,2020.2.10,MacIntel,60,614813970c3839c5bfc24e99,,,,,1,0,1,0,1,,,,,,,
,,,,,,,,blues clues,2.1035,,,,,,61391e597dbe122a2dffb914,614814f5b300312d81cbd969,2021-09-20_00h58.43.365,Colour_Association_Experimentv1,2020.2.10,MacIntel,60,614813970c3839c5bfc24e99,,,,,2,0,2,0,1,,,,,,,
,,,,,,,,rose,1.4205,,,,,,61391e597dbe122a2dffb914,614814f5b300312d81cbd969,2021-09-20_00h58.43.365,Colour_Association_Experimentv1,2020.2.10,MacIntel,60,614813970c3839c5bfc24e99,,,,,3,0,3,0,1,,,,,,,
,,,,,,,,flower,0.8362,,,,,,61391e597dbe122a2dffb914,614814f5b300312d81cbd969,2021-09-20_00h58.43.365,Colour_Association_Experimentv1,2020.2.10,MacIntel,60,614813970c3839c5bfc24e99,,,,,4,0,4,0,1,,,,,,,
,,,,,,,,girl,3.9579,,,,,,61391e597dbe122a2dffb914,614814f5b300312d81cbd969,2021-09-20_00h58.43.365,Colour_Association_Experimentv1,2020.2.10,MacIntel,60,614813970c3839c5bfc24e99,,,,,5,0,5,0,1,,,,,,,
,,,,,,,,hot,3.3914,,,,,,61391e597dbe122a2dffb914,614814f5b300312d81cbd969,2021-09-20_00h58.43.365,Colour_Association_Experimentv1,2020.2.10,MacIntel,60,614813970c3839c5bfc24e99,,,,,6,0,6,0,1,,,,,,,
,,,,,,,,,8.1852,,,,,,61391e597dbe122a2dffb914,614814f5b300312d81cbd969,2021-09-20_00h58.43.365,Colour_Association_Experimentv1,2020.2.10,MacIntel,60,614813970c3839c5bfc24e99,,,,,7,0,7,0,1,,,,,,,
,,,,,,,,,,,,,,,61391e597dbe122a2dffb914,614814f5b300312d81cbd969,2021-09-20_00h58.43.365,Colour_Association_Experimentv1,2020.2.10,MacIntel,60,614813970c3839c5bfc24e99,,,9,FF,,,,,,space,0.2537,0,1,1,8,1
,,,,,,,, teal,14.5363,,,,,,61391e597dbe122a2dffb914,614814f5b300312d81cbd969,2021-09-20_00h58.43.365,Colour_Association_Experimentv1,2020.2.10,MacIntel,60,614813970c3839c5bfc24e99,,,5,FF,0,0,0,0,1,,,,,,,
,,,,,,,,sea foam,1.9521,,,,,,61391e597dbe122a2dffb914,614814f5b300312d81cbd969,2021-09-20_00h58.43.365,Colour_Association_Experimentv1,2020.2.10,MacIntel,60,614813970c3839c5bfc24e99,,,,,1,0,1,0,1,,,,,,,
,,,,,,,,beach,2.2053,,,,,,61391e597dbe122a2dffb914,614814f5b300312d81cbd969,2021-09-20_00h58.43.365,Colour_Association_Experimentv1,2020.2.10,MacIntel,60,614813970c3839c5bfc24e99,,,,,2,0,2,0,1,,,,,,,
,,,,,,,,mermaid,1.8023,,,,,,61391e597dbe122a2dffb914,614814f5b300312d81cbd969,2021-09-20_00h58.43.365,Colour_Association_Experimentv1,2020.2.10,MacIntel,60,614813970c3839c5bfc24e99,,,,,3,0,3,0,1,,,,,,,
,,,,,,,,water,30.5308,,,,,,61391e597dbe122a2dffb914,614814f5b300312d81cbd969,2021-09-20_00h58.43.365,Colour_Association_Experimentv1,2020.2.10,MacIntel,60,614813970c3839c5bfc24e99,,,,,4,0,4,0,1,,,,,,,
,,,,,,,,,4.8292,,,,,,61391e597dbe122a2dffb914,614814f5b300312d81cbd969,2021-09-20_00h58.43.365,Colour_Association_Experimentv1,2020.2.10,MacIntel,60,614813970c3839c5bfc24e99,,,,,5,0,5,0,1,,,,,,,
,,,,,,,,,,,,,,,61391e597dbe122a2dffb914,614814f5b300312d81cbd969,2021-09-20_00h58.43.365,Colour_Association_Experimentv1,2020.2.10,MacIntel,60,614813970c3839c5bfc24e99,,,5,FF,,,,,,space,1.141,0,2,2,4,1
,,,,,,,, angry,2.3384,,,,,,61391e597dbe122a2dffb914,614814f5b300312d81cbd969,2021-09-20_00h58.43.365,Colour_Association_Experimentv1,2020.2.10,MacIntel,60,614813970c3839c5bfc24e99,,,1,FF,0,0,0,0,1,,,,,,,
,,,,,,,,lava,1.6203,,,,,,61391e597dbe122a2dffb914,614814f5b300312d81cbd969,2021-09-20_00h58.43.365,Colour_Association_Experimentv1,2020.2.10,MacIntel,60,614813970c3839c5bfc24e99,,,,,1,0,1,0,1,,,,,,,
,,,,,,,,volcano,3.0715,,,,,,61391e597dbe122a2dffb914,614814f5b300312d81cbd969,2021-09-20_00h58.43.365,Colour_Association_Experimentv1,2020.2.10,MacIntel,60,614813970c3839c5bfc24e99,,,,,2,0,2,0,1,,,,,,,
,,,,,,,,blood,5.6166,,,,,,61391e597dbe122a2dffb914,614814f5b300312d81cbd969,2021-09-20_00h58.43.365,Colour_Association_Experimentv1,2020.2.10,MacIntel,60,614813970c3839c5bfc24e99,,,,,3,0,3,0,1,,,,,,,
,,,,,,,,hot,4.0235,,,,,,61391e597dbe122a2dffb914,614814f5b300312d81cbd969,2021-09-20_00h58.43.365,Colour_Association_Experimentv1,2020.2.10,MacIntel,60,614813970c3839c5bfc24e99,,,,,4,0,4,0,1,,,,,,,
,,,,,,,,keyboard,3.9907,,,,,,61391e597dbe122a2dffb914,614814f5b300312d81cbd969,2021-09-20_00h58.43.365,Colour_Association_Experimentv1,2020.2.10,MacIntel,60,614813970c3839c5bfc24e99,,,,,5,0,5,0,1,,,,,,,
,,,,,,,,giant,7.1011,,,,,,61391e597dbe122a2dffb914,614814f5b300312d81cbd969,2021-09-20_00h58.43.365,Colour_Association_Experimentv1,2020.2.10,MacIntel,60,614813970c3839c5bfc24e99,,,,,6,0,6,0,1,,,,,,,
,,,,,,,,rose,8.5043,,,,,,61391e597dbe122a2dffb914,614814f5b300312d81cbd969,2021-09-20_00h58.43.365,Colour_Association_Experimentv1,2020.2.10,MacIntel,60,614813970c3839c5bfc24e99,,,,,7,0,7,0,1,,,,,,,
,,,,,,,,met gala,11.3433,,,,,,61391e597dbe122a2dffb914,614814f5b300312d81cbd969,2021-09-20_00h58.43.365,Colour_Association_Experimentv1,2020.2.10,MacIntel,60,614813970c3839c5bfc24e99,,,,,8,0,8,0,1,,,,,,,
,,,,,,,,,0.5981,,,,,,61391e597dbe122a2dffb914,614814f5b300312d81cbd969,2021-09-20_00h58.43.365,Colour_Association_Experimentv1,2020.2.10,MacIntel,60,614813970c3839c5bfc24e99,,,,,9,0,9,0,1,,,,,,,
,,,,,,,,,1.1385,,,,,,61391e597dbe122a2dffb914,614814f5b300312d81cbd969,2021-09-20_00h58.43.365,Colour_Association_Experimentv1,2020.2.10,MacIntel,60,614813970c3839c5bfc24e99,,,,,10,0,10,0,1,,,,,,,
,,,,,,,,,,,,,,,61391e597dbe122a2dffb914,614814f5b300312d81cbd969,2021-09-20_00h58.43.365,Colour_Association_Experimentv1,2020.2.10,MacIntel,60,614813970c3839c5bfc24e99,,,1,FF,,,,,,space,0.2343,0,3,3,0,1
,,,,,,,, sun,3.2888,,,,,,61391e597dbe122a2dffb914,614814f5b300312d81cbd969,2021-09-20_00h58.43.365,Colour_Association_Experimentv1,2020.2.10,MacIntel,60,614813970c3839c5bfc24e99,,,2,PF,0,0,0,0,1,,,,,,,
,,,,,,,,mustard,3.8098,,,,,,61391e597dbe122a2dffb914,614814f5b300312d81cbd969,2021-09-20_00h58.43.365,Colour_Association_Experimentv1,2020.2.10,MacIntel,60,614813970c3839c5bfc24e99,,,,,1,0,1,0,1,,,,,,,
,,,,,,,,sunflower,3.0891,,,,,,61391e597dbe122a2dffb914,614814f5b300312d81cbd969,2021-09-20_00h58.43.365,Colour_Association_Experimentv1,2020.2.10,MacIntel,60,614813970c3839c5bfc24e99,,,,,2,0,2,0,1,,,,,,,
,,,,,,,,puke,6.2489,,,,,,61391e597dbe122a2dffb914,614814f5b300312d81cbd969,2021-09-20_00h58.43.365,Colour_Association_Experimentv1,2020.2.10,MacIntel,60,614813970c3839c5bfc24e99,,,,,3,0,3,0,1,,,,,,,
,,,,,,,,,13.3327,,,,,,61391e597dbe122a2dffb914,614814f5b300312d81cbd969,2021-09-20_00h58.43.365,Colour_Association_Experimentv1,2020.2.10,MacIntel,60,614813970c3839c5bfc24e99,,,,,4,0,4,0,1,,,,,,,
,,,,,,,,,,,,,,,61391e597dbe122a2dffb914,614814f5b300312d81cbd969,2021-09-20_00h58.43.365,Colour_Association_Experimentv1,2020.2.10,MacIntel,60,614813970c3839c5bfc24e99,,,2,PF,,,,,,space,0.2072,0,4,4,1,1
,,,,,,,,gross,13.3829,,,,,,61391e597dbe122a2dffb914,614814f5b300312d81cbd969,2021-09-20_00h58.43.365,Colour_Association_Experimentv1,2020.2.10,MacIntel,60,614813970c3839c5bfc24e99,,,3,FF,0,0,0,0,1,,,,,,,
,,,,,,,,striped sweater,17.0099,,,,,,61391e597dbe122a2dffb914,614814f5b300312d81cbd969,2021-09-20_00h58.43.365,Colour_Association_Experimentv1,2020.2.10,MacIntel,60,614813970c3839c5bfc24e99,,,,,1,0,1,0,1,,,,,,,
,,,,,,,,carpet,2.5706,,,,,,61391e597dbe122a2dffb914,614814f5b300312d81cbd969,2021-09-20_00h58.43.365,Colour_Association_Experimentv1,2020.2.10,MacIntel,60,614813970c3839c5bfc24e99,,,,,2,0,2,0,1,,,,,,,
,,,,,,,,puke,3.3232,,,,,,61391e597dbe122a2dffb914,614814f5b300312d81cbd969,2021-09-20_00h58.43.365,Colour_Association_Experimentv1,2020.2.10,MacIntel,60,614813970c3839c5bfc24e99,,,,,3,0,3,0,1,,,,,,,
,,,,,,,,grass,3.742,,,,,,61391e597dbe122a2dffb914,614814f5b300312d81cbd969,2021-09-20_00h58.43.365,Colour_Association_Experimentv1,2020.2.10,MacIntel,60,614813970c3839c5bfc24e99,,,,,4,0,4,0,1,,,,,,,
,,,,,,,,marker,6.8482,,,,,,61391e597dbe122a2dffb914,614814f5b300312d81cbd969,2021-09-20_00h58.43.365,Colour_Association_Experimentv1,2020.2.10,MacIntel,60,614813970c3839c5bfc24e99,,,,,5,0,5,0,1,,,,,,,
,,,,,,,,matcha,2.6066,,,,,,61391e597dbe122a2dffb914,614814f5b300312d81cbd969,2021-09-20_00h58.43.365,Colour_Association_Experimentv1,2020.2.10,MacIntel,60,614813970c3839c5bfc24e99,,,,,6,0,6,0,1,,,,,,,
,,,,,,,,,1.8684,,,,,,61391e597dbe122a2dffb914,614814f5b300312d81cbd969,2021-09-20_00h58.43.365,Colour_Association_Experimentv1,2020.2.10,MacIntel,60,614813970c3839c5bfc24e99,,,,,7,0,7,0,1,,,,,,,
,,,,,,,,,,,,,,,61391e597dbe122a2dffb914,614814f5b300312d81cbd969,2021-09-20_00h58.43.365,Colour_Association_Experimentv1,2020.2.10,MacIntel,60,614813970c3839c5bfc24e99,,,3,FF,,,,,,space,0.338,0,5,5,2,1
,,,,,,,, violet,2.1021,,,,,,61391e597dbe122a2dffb914,614814f5b300312d81cbd969,2021-09-20_00h58.43.365,Colour_Association_Experimentv1,2020.2.10,MacIntel,60,614813970c3839c5bfc24e99,,,8,PF,0,0,0,0,1,,,,,,,
,,,,,,,,nyu,2.9241,,,,,,61391e597dbe122a2dffb914,614814f5b300312d81cbd969,2021-09-20_00h58.43.365,Colour_Association_Experimentv1,2020.2.10,MacIntel,60,614813970c3839c5bfc24e99,,,,,1,0,1,0,1,,,,,,,
,,,,,,,,sharpie,9.441,,,,,,61391e597dbe122a2dffb914,614814f5b300312d81cbd969,2021-09-20_00h58.43.365,Colour_Association_Experimentv1,2020.2.10,MacIntel,60,614813970c3839c5bfc24e99,,,,,2,0,2,0,1,,,,,,,
,,,,,,,,boyfriend,5.4288,,,,,,61391e597dbe122a2dffb914,614814f5b300312d81cbd969,2021-09-20_00h58.43.365,Colour_Association_Experimentv1,2020.2.10,MacIntel,60,614813970c3839c5bfc24e99,,,,,3,0,3,0,1,,,,,,,
,,,,,,,,galaxy,9.0051,,,,,,61391e597dbe122a2dffb914,614814f5b300312d81cbd969,2021-09-20_00h58.43.365,Colour_Association_Experimentv1,2020.2.10,MacIntel,60,614813970c3839c5bfc24e99,,,,,4,0,4,0,1,,,,,,,
,,,,,,,,,0.3985,,,,,,61391e597dbe122a2dffb914,614814f5b300312d81cbd969,2021-09-20_00h58.43.365,Colour_Association_Experimentv1,2020.2.10,MacIntel,60,614813970c3839c5bfc24e99,,,,,5,0,5,0,1,,,,,,,
,,,,,,,,headboard,6.4479,,,,,,61391e597dbe122a2dffb914,614814f5b300312d81cbd969,2021-09-20_00h58.43.365,Colour_Association_Experimentv1,2020.2.10,MacIntel,60,614813970c3839c5bfc24e99,,,,,6,0,6,0,1,,,,,,,
,,,,,,,,neutral,8.253,,,,,,61391e597dbe122a2dffb914,614814f5b300312d81cbd969,2021-09-20_00h58.43.365,Colour_Association_Experimentv1,2020.2.10,MacIntel,60,614813970c3839c5bfc24e99,,,,,7,0,7,0,1,,,,,,,
,,,,,,,,,0.8012,,,,,,61391e597dbe122a2dffb914,614814f5b300312d81cbd969,2021-09-20_00h58.43.365,Colour_Association_Experimentv1,2020.2.10,MacIntel,60,614813970c3839c5bfc24e99,,,,,8,0,8,0,1,,,,,,,
,,,,,,,,,,,,,,,61391e597dbe122a2dffb914,614814f5b300312d81cbd969,2021-09-20_00h58.43.365,Colour_Association_Experimentv1,2020.2.10,MacIntel,60,614813970c3839c5bfc24e99,,,8,PF,,,,,,space,0.6831,0,6,6,7,1
,,,,,,,, bright,2.2881,,,,,,61391e597dbe122a2dffb914,614814f5b300312d81cbd969,2021-09-20_00h58.43.365,Colour_Association_Experimentv1,2020.2.10,MacIntel,60,614813970c3839c5bfc24e99,,,4,PF,0,0,0,0,1,,,,,,,
,,,,,,,,lime,3.7258,,,,,,61391e597dbe122a2dffb914,614814f5b300312d81cbd969,2021-09-20_00h58.43.365,Colour_Association_Experimentv1,2020.2.10,MacIntel,60,614813970c3839c5bfc24e99,,,,,1,0,1,0,1,,,,,,,
,,,,,,,,citrus,1.5833,,,,,,61391e597dbe122a2dffb914,614814f5b300312d81cbd969,2021-09-20_00h58.43.365,Colour_Association_Experimentv1,2020.2.10,MacIntel,60,614813970c3839c5bfc24e99,,,,,2,0,2,0,1,,,,,,,
,,,,,,,,fun,1.1031,,,,,,61391e597dbe122a2dffb914,614814f5b300312d81cbd969,2021-09-20_00h58.43.365,Colour_Association_Experimentv1,2020.2.10,MacIntel,60,614813970c3839c5bfc24e99,,,,,3,0,3,0,1,,,,,,,
,,,,,,,,margarita,5.4971,,,,,,61391e597dbe122a2dffb914,614814f5b300312d81cbd969,2021-09-20_00h58.43.365,Colour_Association_Experimentv1,2020.2.10,MacIntel,60,614813970c3839c5bfc24e99,,,,,4,0,4,0,1,,,,,,,
,,,,,,,,plant,3.706,,,,,,61391e597dbe122a2dffb914,614814f5b300312d81cbd969,2021-09-20_00h58.43.365,Colour_Association_Experimentv1,2020.2.10,MacIntel,60,614813970c3839c5bfc24e99,,,,,5,0,5,0,1,,,,,,,
,,,,,,,,vegan,2.5894,,,,,,61391e597dbe122a2dffb914,614814f5b300312d81cbd969,2021-09-20_00h58.43.365,Colour_Association_Experimentv1,2020.2.10,MacIntel,60,614813970c3839c5bfc24e99,,,,,6,0,6,0,1,,,,,,,
,,,,,,,,earth,1.2356,,,,,,61391e597dbe122a2dffb914,614814f5b300312d81cbd969,2021-09-20_00h58.43.365,Colour_Association_Experimentv1,2020.2.10,MacIntel,60,614813970c3839c5bfc24e99,,,,,7,0,7,0,1,,,,,,,
,,,,,,,,,10.7769,,,,,,61391e597dbe122a2dffb914,614814f5b300312d81cbd969,2021-09-20_00h58.43.365,Colour_Association_Experimentv1,2020.2.10,MacIntel,60,614813970c3839c5bfc24e99,,,,,8,0,8,0,1,,,,,,,
,,,,,,,,,,,,,,,61391e597dbe122a2dffb914,614814f5b300312d81cbd969,2021-09-20_00h58.43.365,Colour_Association_Experimentv1,2020.2.10,MacIntel,60,614813970c3839c5bfc24e99,,,4,PF,,,,,,space,0.0009,0,7,7,3,1
,,,,,,,, waterparks,7.8183,,,,,,61391e597dbe122a2dffb914,614814f5b300312d81cbd969,2021-09-20_00h58.43.365,Colour_Association_Experimentv1,2020.2.10,MacIntel,60,614813970c3839c5bfc24e99,,,7,FF,0,0,0,0,1,,,,,,,
,,,,,,,,denim,4.0429,,,,,,61391e597dbe122a2dffb914,614814f5b300312d81cbd969,2021-09-20_00h58.43.365,Colour_Association_Experimentv1,2020.2.10,MacIntel,60,614813970c3839c5bfc24e99,,,,,1,0,1,0,1,,,,,,,
,,,,,,,,tears,6.4798,,,,,,61391e597dbe122a2dffb914,614814f5b300312d81cbd969,2021-09-20_00h58.43.365,Colour_Association_Experimentv1,2020.2.10,MacIntel,60,614813970c3839c5bfc24e99,,,,,2,0,2,0,1,,,,,,,
,,,,,,,,blue raspberry,8.053,,,,,,61391e597dbe122a2dffb914,614814f5b300312d81cbd969,2021-09-20_00h58.43.365,Colour_Association_Experimentv1,2020.2.10,MacIntel,60,614813970c3839c5bfc24e99,,,,,3,0,3,0,1,,,,,,,
,,,,,,,,candy,6.2974,,,,,,61391e597dbe122a2dffb914,614814f5b300312d81cbd969,2021-09-20_00h58.43.365,Colour_Association_Experimentv1,2020.2.10,MacIntel,60,614813970c3839c5bfc24e99,,,,,4,0,4,0,1,,,,,,,
,,,,,,,,jolly rancher,6.9345,,,,,,61391e597dbe122a2dffb914,614814f5b300312d81cbd969,2021-09-20_00h58.43.365,Colour_Association_Experimentv1,2020.2.10,MacIntel,60,614813970c3839c5bfc24e99,,,,,5,0,5,0,1,,,,,,,
,,,,,,,,,4.8607,,,,,,61391e597dbe122a2dffb914,614814f5b300312d81cbd969,2021-09-20_00h58.43.365,Colour_Association_Experimentv1,2020.2.10,MacIntel,60,614813970c3839c5bfc24e99,,,,,6,0,6,0,1,,,,,,,
,,,,,,,,,,,,,,,61391e597dbe122a2dffb914,614814f5b300312d81cbd969,2021-09-20_00h58.43.365,Colour_Association_Experimentv1,2020.2.10,MacIntel,60,614813970c3839c5bfc24e99,,,7,FF,,,,,,,,0,8,8,6,1
