key_resp.keys,key_resp.rt,key_resp_2.keys,key_resp_2.rt,key_resp_3.keys,key_resp_3.rt,key_resp_4.keys,key_resp_4.rt,inputText,rt,pracassoc.thisRepN,pracassoc.thisTrialN,pracassoc.thisN,pracassoc.thisIndex,pracassoc.ran,participant,session,date,expName,psychopyVersion,OS,frameRate,study_id,key_resp_6.keys,key_resp_6.rt,Colour1,Ecc,assocresponse.thisRepN,assocresponse.thisTrialN,assocresponse.thisN,assocresponse.thisIndex,assocresponse.ran,key_resp_5.keys,key_resp_5.rt,trials.thisRepN,trials.thisTrialN,trials.thisN,trials.thisIndex,trials.ran
space,1.9435,space,120.2266,space,19.7279,space,31.9182, sun,18.6089,0,0,0,0,1,613a9172974cf7634ed96b17,614818da8412dc997ffcd2d9,2021-09-20_00h15.43.513,Colour_Association_Experimentv1,2020.2.10,Win32,60,614813970c3839c5bfc24e99,,,,,,,,,,,,,,,,
,,,,,,,,light,3.0297,1,0,1,0,1,613a9172974cf7634ed96b17,614818da8412dc997ffcd2d9,2021-09-20_00h15.43.513,Colour_Association_Experimentv1,2020.2.10,Win32,60,614813970c3839c5bfc24e99,,,,,,,,,,,,,,,,
,,,,,,,,day,1.8323,2,0,2,0,1,613a9172974cf7634ed96b17,614818da8412dc997ffcd2d9,2021-09-20_00h15.43.513,Colour_Association_Experimentv1,2020.2.10,Win32,60,614813970c3839c5bfc24e99,,,,,,,,,,,,,,,,
,,,,,,,,happiness,4.6654,3,0,3,0,1,613a9172974cf7634ed96b17,614818da8412dc997ffcd2d9,2021-09-20_00h15.43.513,Colour_Association_Experimentv1,2020.2.10,Win32,60,614813970c3839c5bfc24e99,,,,,,,,,,,,,,,,
,,,,,,,,day,7.0143,4,0,4,0,1,613a9172974cf7634ed96b17,614818da8412dc997ffcd2d9,2021-09-20_00h15.43.513,Colour_Association_Experimentv1,2020.2.10,Win32,60,614813970c3839c5bfc24e99,,,,,,,,,,,,,,,,
,,,,,,,,sky,17.9635,5,0,5,0,1,613a9172974cf7634ed96b17,614818da8412dc997ffcd2d9,2021-09-20_00h15.43.513,Colour_Association_Experimentv1,2020.2.10,Win32,60,614813970c3839c5bfc24e99,,,,,,,,,,,,,,,,
,,,,,,,, orange,5.9808,,,,,,613a9172974cf7634ed96b17,614818da8412dc997ffcd2d9,2021-09-20_00h15.43.513,Colour_Association_Experimentv1,2020.2.10,Win32,60,614813970c3839c5bfc24e99,space,2.9366,2,PF,0,0,0,0,1,,,,,,,
,,,,,,,,fun,9.798,,,,,,613a9172974cf7634ed96b17,614818da8412dc997ffcd2d9,2021-09-20_00h15.43.513,Colour_Association_Experimentv1,2020.2.10,Win32,60,614813970c3839c5bfc24e99,,,,,1,0,1,0,1,,,,,,,
,,,,,,,,day,1.8143,,,,,,613a9172974cf7634ed96b17,614818da8412dc997ffcd2d9,2021-09-20_00h15.43.513,Colour_Association_Experimentv1,2020.2.10,Win32,60,614813970c3839c5bfc24e99,,,,,2,0,2,0,1,,,,,,,
,,,,,,,,happiness,7.7643,,,,,,613a9172974cf7634ed96b17,614818da8412dc997ffcd2d9,2021-09-20_00h15.43.513,Colour_Association_Experimentv1,2020.2.10,Win32,60,614813970c3839c5bfc24e99,,,,,3,0,3,0,1,,,,,,,
,,,,,,,,peach,5.1808,,,,,,613a9172974cf7634ed96b17,614818da8412dc997ffcd2d9,2021-09-20_00h15.43.513,Colour_Association_Experimentv1,2020.2.10,Win32,60,614813970c3839c5bfc24e99,,,,,4,0,4,0,1,,,,,,,
,,,,,,,,fruit,4.9807,,,,,,613a9172974cf7634ed96b17,614818da8412dc997ffcd2d9,2021-09-20_00h15.43.513,Colour_Association_Experimentv1,2020.2.10,Win32,60,614813970c3839c5bfc24e99,,,,,5,0,5,0,1,,,,,,,
,,,,,,,,orange tree,7.6146,,,,,,613a9172974cf7634ed96b17,614818da8412dc997ffcd2d9,2021-09-20_00h15.43.513,Colour_Association_Experimentv1,2020.2.10,Win32,60,614813970c3839c5bfc24e99,,,,,6,0,6,0,1,,,,,,,
,,,,,,,,,1.0981,,,,,,613a9172974cf7634ed96b17,614818da8412dc997ffcd2d9,2021-09-20_00h15.43.513,Colour_Association_Experimentv1,2020.2.10,Win32,60,614813970c3839c5bfc24e99,,,,,7,0,7,0,1,,,,,,,
,,,,,,,, ,11.0651,,,,,,613a9172974cf7634ed96b17,614818da8412dc997ffcd2d9,2021-09-20_00h15.43.513,Colour_Association_Experimentv1,2020.2.10,Win32,60,614813970c3839c5bfc24e99,,,,,8,0,8,0,1,,,,,,,
,,,,,,,,,,,,,,,613a9172974cf7634ed96b17,614818da8412dc997ffcd2d9,2021-09-20_00h15.43.513,Colour_Association_Experimentv1,2020.2.10,Win32,60,614813970c3839c5bfc24e99,,,2,PF,,,,,,space,2.3519,0,0,0,1,1
,,,,,,,, gir,4.6273,,,,,,613a9172974cf7634ed96b17,614818da8412dc997ffcd2d9,2021-09-20_00h15.43.513,Colour_Association_Experimentv1,2020.2.10,Win32,60,614813970c3839c5bfc24e99,,,9,FF,0,0,0,0,1,,,,,,,
,,,,,,,,femenin,6.2643,,,,,,613a9172974cf7634ed96b17,614818da8412dc997ffcd2d9,2021-09-20_00h15.43.513,Colour_Association_Experimentv1,2020.2.10,Win32,60,614813970c3839c5bfc24e99,,,,,1,0,1,0,1,,,,,,,
,,,,,,,,sweet,4.8475,,,,,,613a9172974cf7634ed96b17,614818da8412dc997ffcd2d9,2021-09-20_00h15.43.513,Colour_Association_Experimentv1,2020.2.10,Win32,60,614813970c3839c5bfc24e99,,,,,2,0,2,0,1,,,,,,,
,,,,,,,,cute,2.8477,,,,,,613a9172974cf7634ed96b17,614818da8412dc997ffcd2d9,2021-09-20_00h15.43.513,Colour_Association_Experimentv1,2020.2.10,Win32,60,614813970c3839c5bfc24e99,,,,,3,0,3,0,1,,,,,,,
,,,,,,,,tender,36.8142,,,,,,613a9172974cf7634ed96b17,614818da8412dc997ffcd2d9,2021-09-20_00h15.43.513,Colour_Association_Experimentv1,2020.2.10,Win32,60,614813970c3839c5bfc24e99,,,,,4,0,4,0,1,,,,,,,
,,,,,,,,,1.9976,,,,,,613a9172974cf7634ed96b17,614818da8412dc997ffcd2d9,2021-09-20_00h15.43.513,Colour_Association_Experimentv1,2020.2.10,Win32,60,614813970c3839c5bfc24e99,,,,,5,0,5,0,1,,,,,,,
,,,,,,,,,,,,,,,613a9172974cf7634ed96b17,614818da8412dc997ffcd2d9,2021-09-20_00h15.43.513,Colour_Association_Experimentv1,2020.2.10,Win32,60,614813970c3839c5bfc24e99,,,9,FF,,,,,,space,0.0553,0,1,1,8,1
,,,,,,,, sun,2.5777,,,,,,613a9172974cf7634ed96b17,614818da8412dc997ffcd2d9,2021-09-20_00h15.43.513,Colour_Association_Experimentv1,2020.2.10,Win32,60,614813970c3839c5bfc24e99,,,3,FF,0,0,0,0,1,,,,,,,
,,,,,,,,light,2.2492,,,,,,613a9172974cf7634ed96b17,614818da8412dc997ffcd2d9,2021-09-20_00h15.43.513,Colour_Association_Experimentv1,2020.2.10,Win32,60,614813970c3839c5bfc24e99,,,,,1,0,1,0,1,,,,,,,
,,,,,,,,day,2.9655,,,,,,613a9172974cf7634ed96b17,614818da8412dc997ffcd2d9,2021-09-20_00h15.43.513,Colour_Association_Experimentv1,2020.2.10,Win32,60,614813970c3839c5bfc24e99,,,,,2,0,2,0,1,,,,,,,
,,,,,,,,hot,23.8004,,,,,,613a9172974cf7634ed96b17,614818da8412dc997ffcd2d9,2021-09-20_00h15.43.513,Colour_Association_Experimentv1,2020.2.10,Win32,60,614813970c3839c5bfc24e99,,,,,3,0,3,0,1,,,,,,,
,,,,,,,,lime,1.6652,,,,,,613a9172974cf7634ed96b17,614818da8412dc997ffcd2d9,2021-09-20_00h15.43.513,Colour_Association_Experimentv1,2020.2.10,Win32,60,614813970c3839c5bfc24e99,,,,,4,0,4,0,1,,,,,,,
,,,,,,,,flower,7.4294,,,,,,613a9172974cf7634ed96b17,614818da8412dc997ffcd2d9,2021-09-20_00h15.43.513,Colour_Association_Experimentv1,2020.2.10,Win32,60,614813970c3839c5bfc24e99,,,,,5,0,5,0,1,,,,,,,
,,,,,,,,,1.2138,,,,,,613a9172974cf7634ed96b17,614818da8412dc997ffcd2d9,2021-09-20_00h15.43.513,Colour_Association_Experimentv1,2020.2.10,Win32,60,614813970c3839c5bfc24e99,,,,,6,0,6,0,1,,,,,,,
,,,,,,,,day,10.7682,,,,,,613a9172974cf7634ed96b17,614818da8412dc997ffcd2d9,2021-09-20_00h15.43.513,Colour_Association_Experimentv1,2020.2.10,Win32,60,614813970c3839c5bfc24e99,,,,,7,0,7,0,1,,,,,,,
,,,,,,,,,,,,,,,613a9172974cf7634ed96b17,614818da8412dc997ffcd2d9,2021-09-20_00h15.43.513,Colour_Association_Experimentv1,2020.2.10,Win32,60,614813970c3839c5bfc24e99,,,3,FF,,,,,,space,1.2333,0,2,2,2,1
,,,,,,,, boy,6.1121,,,,,,613a9172974cf7634ed96b17,614818da8412dc997ffcd2d9,2021-09-20_00h15.43.513,Colour_Association_Experimentv1,2020.2.10,Win32,60,614813970c3839c5bfc24e99,,,5,FF,0,0,0,0,1,,,,,,,
,,,,,,,,peace,14.3801,,,,,,613a9172974cf7634ed96b17,614818da8412dc997ffcd2d9,2021-09-20_00h15.43.513,Colour_Association_Experimentv1,2020.2.10,Win32,60,614813970c3839c5bfc24e99,,,,,1,0,1,0,1,,,,,,,
,,,,,,,,confident,5.7138,,,,,,613a9172974cf7634ed96b17,614818da8412dc997ffcd2d9,2021-09-20_00h15.43.513,Colour_Association_Experimentv1,2020.2.10,Win32,60,614813970c3839c5bfc24e99,,,,,2,0,2,0,1,,,,,,,
,,,,,,,,sky,6.114,,,,,,613a9172974cf7634ed96b17,614818da8412dc997ffcd2d9,2021-09-20_00h15.43.513,Colour_Association_Experimentv1,2020.2.10,Win32,60,614813970c3839c5bfc24e99,,,,,3,0,3,0,1,,,,,,,
,,,,,,,,serenity,6.1304,,,,,,613a9172974cf7634ed96b17,614818da8412dc997ffcd2d9,2021-09-20_00h15.43.513,Colour_Association_Experimentv1,2020.2.10,Win32,60,614813970c3839c5bfc24e99,,,,,4,0,4,0,1,,,,,,,
,,,,,,,,,1.2476,,,,,,613a9172974cf7634ed96b17,614818da8412dc997ffcd2d9,2021-09-20_00h15.43.513,Colour_Association_Experimentv1,2020.2.10,Win32,60,614813970c3839c5bfc24e99,,,,,5,0,5,0,1,,,,,,,
,,,,,,,,,,,,,,,613a9172974cf7634ed96b17,614818da8412dc997ffcd2d9,2021-09-20_00h15.43.513,Colour_Association_Experimentv1,2020.2.10,Win32,60,614813970c3839c5bfc24e99,,,5,FF,,,,,,space,1.2636,0,3,3,4,1
,,,,,,,, enfant,18.3091,,,,,,613a9172974cf7634ed96b17,614818da8412dc997ffcd2d9,2021-09-20_00h15.43.513,Colour_Association_Experimentv1,2020.2.10,Win32,60,614813970c3839c5bfc24e99,,,8,PF,0,0,0,0,1,,,,,,,
,,,,,,,,elegance,6.3136,,,,,,613a9172974cf7634ed96b17,614818da8412dc997ffcd2d9,2021-09-20_00h15.43.513,Colour_Association_Experimentv1,2020.2.10,Win32,60,614813970c3839c5bfc24e99,,,,,1,0,1,0,1,,,,,,,
,,,,,,,,fashion,12.2134,,,,,,613a9172974cf7634ed96b17,614818da8412dc997ffcd2d9,2021-09-20_00h15.43.513,Colour_Association_Experimentv1,2020.2.10,Win32,60,614813970c3839c5bfc24e99,,,,,2,0,2,0,1,,,,,,,
,,,,,,,,lavender,14.5634,,,,,,613a9172974cf7634ed96b17,614818da8412dc997ffcd2d9,2021-09-20_00h15.43.513,Colour_Association_Experimentv1,2020.2.10,Win32,60,614813970c3839c5bfc24e99,,,,,3,0,3,0,1,,,,,,,
,,,,,,,,happiness,7.5631,,,,,,613a9172974cf7634ed96b17,614818da8412dc997ffcd2d9,2021-09-20_00h15.43.513,Colour_Association_Experimentv1,2020.2.10,Win32,60,614813970c3839c5bfc24e99,,,,,4,0,4,0,1,,,,,,,
,,,,,,,,,1.6974,,,,,,613a9172974cf7634ed96b17,614818da8412dc997ffcd2d9,2021-09-20_00h15.43.513,Colour_Association_Experimentv1,2020.2.10,Win32,60,614813970c3839c5bfc24e99,,,,,5,0,5,0,1,,,,,,,
,,,,,,,,,3.4052,,,,,,613a9172974cf7634ed96b17,614818da8412dc997ffcd2d9,2021-09-20_00h15.43.513,Colour_Association_Experimentv1,2020.2.10,Win32,60,614813970c3839c5bfc24e99,,,,,6,0,6,0,1,,,,,,,
,,,,,,,,,,,,,,,613a9172974cf7634ed96b17,614818da8412dc997ffcd2d9,2021-09-20_00h15.43.513,Colour_Association_Experimentv1,2020.2.10,Win32,60,614813970c3839c5bfc24e99,,,8,PF,,,,,,space,2.7909,0,4,4,7,1
,,,,,,,, sexy,7.6122,,,,,,613a9172974cf7634ed96b17,614818da8412dc997ffcd2d9,2021-09-20_00h15.43.513,Colour_Association_Experimentv1,2020.2.10,Win32,60,614813970c3839c5bfc24e99,,,1,FF,0,0,0,0,1,,,,,,,
,,,,,,,,hot,1.1137,,,,,,613a9172974cf7634ed96b17,614818da8412dc997ffcd2d9,2021-09-20_00h15.43.513,Colour_Association_Experimentv1,2020.2.10,Win32,60,614813970c3839c5bfc24e99,,,,,1,0,1,0,1,,,,,,,
,,,,,,,,passion,2.2987,,,,,,613a9172974cf7634ed96b17,614818da8412dc997ffcd2d9,2021-09-20_00h15.43.513,Colour_Association_Experimentv1,2020.2.10,Win32,60,614813970c3839c5bfc24e99,,,,,2,0,2,0,1,,,,,,,
,,,,,,,,anger,10.315,,,,,,613a9172974cf7634ed96b17,614818da8412dc997ffcd2d9,2021-09-20_00h15.43.513,Colour_Association_Experimentv1,2020.2.10,Win32,60,614813970c3839c5bfc24e99,,,,,3,0,3,0,1,,,,,,,
,,,,,,,,love,2.3802,,,,,,613a9172974cf7634ed96b17,614818da8412dc997ffcd2d9,2021-09-20_00h15.43.513,Colour_Association_Experimentv1,2020.2.10,Win32,60,614813970c3839c5bfc24e99,,,,,4,0,4,0,1,,,,,,,
,,,,,,,,kisses,3.0486,,,,,,613a9172974cf7634ed96b17,614818da8412dc997ffcd2d9,2021-09-20_00h15.43.513,Colour_Association_Experimentv1,2020.2.10,Win32,60,614813970c3839c5bfc24e99,,,,,5,0,5,0,1,,,,,,,
,,,,,,,,sex,2.032,,,,,,613a9172974cf7634ed96b17,614818da8412dc997ffcd2d9,2021-09-20_00h15.43.513,Colour_Association_Experimentv1,2020.2.10,Win32,60,614813970c3839c5bfc24e99,,,,,6,0,6,0,1,,,,,,,
,,,,,,,,,3.432,,,,,,613a9172974cf7634ed96b17,614818da8412dc997ffcd2d9,2021-09-20_00h15.43.513,Colour_Association_Experimentv1,2020.2.10,Win32,60,614813970c3839c5bfc24e99,,,,,7,0,7,0,1,,,,,,,
,,,,,,,,,,,,,,,613a9172974cf7634ed96b17,614818da8412dc997ffcd2d9,2021-09-20_00h15.43.513,Colour_Association_Experimentv1,2020.2.10,Win32,60,614813970c3839c5bfc24e99,,,1,FF,,,,,,space,3.6085,0,5,5,0,1
,,,,,,,, radioactive,21.0749,,,,,,613a9172974cf7634ed96b17,614818da8412dc997ffcd2d9,2021-09-20_00h15.43.513,Colour_Association_Experimentv1,2020.2.10,Win32,60,614813970c3839c5bfc24e99,,,4,PF,0,0,0,0,1,,,,,,,
,,,,,,,,young,25.7793,,,,,,613a9172974cf7634ed96b17,614818da8412dc997ffcd2d9,2021-09-20_00h15.43.513,Colour_Association_Experimentv1,2020.2.10,Win32,60,614813970c3839c5bfc24e99,,,,,1,0,1,0,1,,,,,,,
,,,,,,,,emotion,16.2505,,,,,,613a9172974cf7634ed96b17,614818da8412dc997ffcd2d9,2021-09-20_00h15.43.513,Colour_Association_Experimentv1,2020.2.10,Win32,60,614813970c3839c5bfc24e99,,,,,2,0,2,0,1,,,,,,,
,,,,,,,,hope,3.1943,,,,,,613a9172974cf7634ed96b17,614818da8412dc997ffcd2d9,2021-09-20_00h15.43.513,Colour_Association_Experimentv1,2020.2.10,Win32,60,614813970c3839c5bfc24e99,,,,,3,0,3,0,1,,,,,,,
,,,,,,,,,2.3155,,,,,,613a9172974cf7634ed96b17,614818da8412dc997ffcd2d9,2021-09-20_00h15.43.513,Colour_Association_Experimentv1,2020.2.10,Win32,60,614813970c3839c5bfc24e99,,,,,4,0,4,0,1,,,,,,,
,,,,,,,,,,,,,,,613a9172974cf7634ed96b17,614818da8412dc997ffcd2d9,2021-09-20_00h15.43.513,Colour_Association_Experimentv1,2020.2.10,Win32,60,614813970c3839c5bfc24e99,,,4,PF,,,,,,space,1.1361,0,6,6,3,1
,,,,,,,, masculinity,7.6965,,,,,,613a9172974cf7634ed96b17,614818da8412dc997ffcd2d9,2021-09-20_00h15.43.513,Colour_Association_Experimentv1,2020.2.10,Win32,60,614813970c3839c5bfc24e99,,,7,FF,0,0,0,0,1,,,,,,,
,,,,,,,,man,9.3802,,,,,,613a9172974cf7634ed96b17,614818da8412dc997ffcd2d9,2021-09-20_00h15.43.513,Colour_Association_Experimentv1,2020.2.10,Win32,60,614813970c3839c5bfc24e99,,,,,1,0,1,0,1,,,,,,,
,,,,,,,,power,23.7151,,,,,,613a9172974cf7634ed96b17,614818da8412dc997ffcd2d9,2021-09-20_00h15.43.513,Colour_Association_Experimentv1,2020.2.10,Win32,60,614813970c3839c5bfc24e99,,,,,2,0,2,0,1,,,,,,,
,,,,,,,,generosity,7.9453,,,,,,613a9172974cf7634ed96b17,614818da8412dc997ffcd2d9,2021-09-20_00h15.43.513,Colour_Association_Experimentv1,2020.2.10,Win32,60,614813970c3839c5bfc24e99,,,,,3,0,3,0,1,,,,,,,
,,,,,,,,elegance,5.3999,,,,,,613a9172974cf7634ed96b17,614818da8412dc997ffcd2d9,2021-09-20_00h15.43.513,Colour_Association_Experimentv1,2020.2.10,Win32,60,614813970c3839c5bfc24e99,,,,,4,0,4,0,1,,,,,,,
,,,,,,,,mature,3.499,,,,,,613a9172974cf7634ed96b17,614818da8412dc997ffcd2d9,2021-09-20_00h15.43.513,Colour_Association_Experimentv1,2020.2.10,Win32,60,614813970c3839c5bfc24e99,,,,,5,0,5,0,1,,,,,,,
,,,,,,,,,1.6327,,,,,,613a9172974cf7634ed96b17,614818da8412dc997ffcd2d9,2021-09-20_00h15.43.513,Colour_Association_Experimentv1,2020.2.10,Win32,60,614813970c3839c5bfc24e99,,,,,6,0,6,0,1,,,,,,,
,,,,,,,,,,,,,,,613a9172974cf7634ed96b17,614818da8412dc997ffcd2d9,2021-09-20_00h15.43.513,Colour_Association_Experimentv1,2020.2.10,Win32,60,614813970c3839c5bfc24e99,,,7,FF,,,,,,space,0.0352,0,7,7,6,1
,,,,,,,, peace,4.3609,,,,,,613a9172974cf7634ed96b17,614818da8412dc997ffcd2d9,2021-09-20_00h15.43.513,Colour_Association_Experimentv1,2020.2.10,Win32,60,614813970c3839c5bfc24e99,,,6,PF,0,0,0,0,1,,,,,,,
,,,,,,,,sky,1.5136,,,,,,613a9172974cf7634ed96b17,614818da8412dc997ffcd2d9,2021-09-20_00h15.43.513,Colour_Association_Experimentv1,2020.2.10,Win32,60,614813970c3839c5bfc24e99,,,,,1,0,1,0,1,,,,,,,
,,,,,,,,cute,6.9652,,,,,,613a9172974cf7634ed96b17,614818da8412dc997ffcd2d9,2021-09-20_00h15.43.513,Colour_Association_Experimentv1,2020.2.10,Win32,60,614813970c3839c5bfc24e99,,,,,2,0,2,0,1,,,,,,,
,,,,,,,,boy,2.4635,,,,,,613a9172974cf7634ed96b17,614818da8412dc997ffcd2d9,2021-09-20_00h15.43.513,Colour_Association_Experimentv1,2020.2.10,Win32,60,614813970c3839c5bfc24e99,,,,,3,0,3,0,1,,,,,,,
,,,,,,,,confidence,15.3635,,,,,,613a9172974cf7634ed96b17,614818da8412dc997ffcd2d9,2021-09-20_00h15.43.513,Colour_Association_Experimentv1,2020.2.10,Win32,60,614813970c3839c5bfc24e99,,,,,4,0,4,0,1,,,,,,,
,,,,,,,,cold,27.4955,,,,,,613a9172974cf7634ed96b17,614818da8412dc997ffcd2d9,2021-09-20_00h15.43.513,Colour_Association_Experimentv1,2020.2.10,Win32,60,614813970c3839c5bfc24e99,,,,,5,0,5,0,1,,,,,,,
,,,,,,,,,1.9628,,,,,,613a9172974cf7634ed96b17,614818da8412dc997ffcd2d9,2021-09-20_00h15.43.513,Colour_Association_Experimentv1,2020.2.10,Win32,60,614813970c3839c5bfc24e99,,,,,6,0,6,0,1,,,,,,,
,,,,,,,,,,,,,,,613a9172974cf7634ed96b17,614818da8412dc997ffcd2d9,2021-09-20_00h15.43.513,Colour_Association_Experimentv1,2020.2.10,Win32,60,614813970c3839c5bfc24e99,,,6,PF,,,,,,,,0,8,8,5,1
