key_resp.keys,key_resp.rt,key_resp_2.keys,key_resp_2.rt,key_resp_3.keys,key_resp_3.rt,key_resp_4.keys,key_resp_4.rt,inputText,rt,pracassoc.thisRepN,pracassoc.thisTrialN,pracassoc.thisN,pracassoc.thisIndex,pracassoc.ran,participant,session,date,expName,psychopyVersion,OS,frameRate,study_id,key_resp_6.keys,key_resp_6.rt,Colour1,Ecc,assocresponse.thisRepN,assocresponse.thisTrialN,assocresponse.thisN,assocresponse.thisIndex,assocresponse.ran,key_resp_5.keys,key_resp_5.rt,trials.thisRepN,trials.thisTrialN,trials.thisN,trials.thisIndex,trials.ran
space,4.5097,space,29.6975,space,15.5443,space,33.9343, money ,35.2782,0,0,0,0,1,613a8c117ff405c4017c9f92,614814ef975bba84fd885618,2021-09-19_22h59.02.077,Colour_Association_Experimentv1,2020.2.10,Win32,60,614813970c3839c5bfc24e99,,,,,,,,,,,,,,,,
,,,,,,,,gold,4.9588,1,0,1,0,1,613a8c117ff405c4017c9f92,614814ef975bba84fd885618,2021-09-19_22h59.02.077,Colour_Association_Experimentv1,2020.2.10,Win32,60,614813970c3839c5bfc24e99,,,,,,,,,,,,,,,,
,,,,,,,,beer,2.9286,2,0,2,0,1,613a8c117ff405c4017c9f92,614814ef975bba84fd885618,2021-09-19_22h59.02.077,Colour_Association_Experimentv1,2020.2.10,Win32,60,614813970c3839c5bfc24e99,,,,,,,,,,,,,,,,
,,,,,,,,happy,5.7297,3,0,3,0,1,613a8c117ff405c4017c9f92,614814ef975bba84fd885618,2021-09-19_22h59.02.077,Colour_Association_Experimentv1,2020.2.10,Win32,60,614813970c3839c5bfc24e99,,,,,,,,,,,,,,,,
,,,,,,,,,18.5787,4,0,4,0,1,613a8c117ff405c4017c9f92,614814ef975bba84fd885618,2021-09-19_22h59.02.077,Colour_Association_Experimentv1,2020.2.10,Win32,60,614813970c3839c5bfc24e99,,,,,,,,,,,,,,,,
,,,,,,,, happy,14.7663,,,,,,613a8c117ff405c4017c9f92,614814ef975bba84fd885618,2021-09-19_22h59.02.077,Colour_Association_Experimentv1,2020.2.10,Win32,60,614813970c3839c5bfc24e99,space,1.4084,2,PF,0,0,0,0,1,,,,,,,
,,,,,,,,gold,1.7126,,,,,,613a8c117ff405c4017c9f92,614814ef975bba84fd885618,2021-09-19_22h59.02.077,Colour_Association_Experimentv1,2020.2.10,Win32,60,614813970c3839c5bfc24e99,,,,,1,0,1,0,1,,,,,,,
,,,,,,,,money,8.1571,,,,,,613a8c117ff405c4017c9f92,614814ef975bba84fd885618,2021-09-19_22h59.02.077,Colour_Association_Experimentv1,2020.2.10,Win32,60,614813970c3839c5bfc24e99,,,,,2,0,2,0,1,,,,,,,
,,,,,,,,honey,1.9694,,,,,,613a8c117ff405c4017c9f92,614814ef975bba84fd885618,2021-09-19_22h59.02.077,Colour_Association_Experimentv1,2020.2.10,Win32,60,614813970c3839c5bfc24e99,,,,,3,0,3,0,1,,,,,,,
,,,,,,,,,2.2995,,,,,,613a8c117ff405c4017c9f92,614814ef975bba84fd885618,2021-09-19_22h59.02.077,Colour_Association_Experimentv1,2020.2.10,Win32,60,614813970c3839c5bfc24e99,,,,,4,0,4,0,1,,,,,,,
,,,,,,,,,8.593,,,,,,613a8c117ff405c4017c9f92,614814ef975bba84fd885618,2021-09-19_22h59.02.077,Colour_Association_Experimentv1,2020.2.10,Win32,60,614813970c3839c5bfc24e99,,,,,5,0,5,0,1,,,,,,,
,,,,,,,,,,,,,,,613a8c117ff405c4017c9f92,614814ef975bba84fd885618,2021-09-19_22h59.02.077,Colour_Association_Experimentv1,2020.2.10,Win32,60,614813970c3839c5bfc24e99,,,2,PF,,,,,,space,1.534,0,0,0,1,1
,,,,,,,, three,19.0142,,,,,,613a8c117ff405c4017c9f92,614814ef975bba84fd885618,2021-09-19_22h59.02.077,Colour_Association_Experimentv1,2020.2.10,Win32,60,614813970c3839c5bfc24e99,,,5,FF,0,0,0,0,1,,,,,,,
,,,,,,,,plants,2.9828,,,,,,613a8c117ff405c4017c9f92,614814ef975bba84fd885618,2021-09-19_22h59.02.077,Colour_Association_Experimentv1,2020.2.10,Win32,60,614813970c3839c5bfc24e99,,,,,1,0,1,0,1,,,,,,,
,,,,,,,,funny,6.0908,,,,,,613a8c117ff405c4017c9f92,614814ef975bba84fd885618,2021-09-19_22h59.02.077,Colour_Association_Experimentv1,2020.2.10,Win32,60,614813970c3839c5bfc24e99,,,,,2,0,2,0,1,,,,,,,
,,,,,,,,nature,68.781,,,,,,613a8c117ff405c4017c9f92,614814ef975bba84fd885618,2021-09-19_22h59.02.077,Colour_Association_Experimentv1,2020.2.10,Win32,60,614813970c3839c5bfc24e99,,,,,3,0,3,0,1,,,,,,,
,,,,,,,,,2.8881,,,,,,613a8c117ff405c4017c9f92,614814ef975bba84fd885618,2021-09-19_22h59.02.077,Colour_Association_Experimentv1,2020.2.10,Win32,60,614813970c3839c5bfc24e99,,,,,4,0,4,0,1,,,,,,,
,,,,,,,,,1.5963,,,,,,613a8c117ff405c4017c9f92,614814ef975bba84fd885618,2021-09-19_22h59.02.077,Colour_Association_Experimentv1,2020.2.10,Win32,60,614813970c3839c5bfc24e99,,,,,5,0,5,0,1,,,,,,,
,,,,,,,,,,,,,,,613a8c117ff405c4017c9f92,614814ef975bba84fd885618,2021-09-19_22h59.02.077,Colour_Association_Experimentv1,2020.2.10,Win32,60,614813970c3839c5bfc24e99,,,5,FF,,,,,,space,2.1859,0,1,1,4,1
,,,,,,,, water,5.8432,,,,,,613a8c117ff405c4017c9f92,614814ef975bba84fd885618,2021-09-19_22h59.02.077,Colour_Association_Experimentv1,2020.2.10,Win32,60,614813970c3839c5bfc24e99,,,6,PF,0,0,0,0,1,,,,,,,
,,,,,,,,rain,10.7455,,,,,,613a8c117ff405c4017c9f92,614814ef975bba84fd885618,2021-09-19_22h59.02.077,Colour_Association_Experimentv1,2020.2.10,Win32,60,614813970c3839c5bfc24e99,,,,,1,0,1,0,1,,,,,,,
,,,,,,,,sea,1.8798,,,,,,613a8c117ff405c4017c9f92,614814ef975bba84fd885618,2021-09-19_22h59.02.077,Colour_Association_Experimentv1,2020.2.10,Win32,60,614813970c3839c5bfc24e99,,,,,2,0,2,0,1,,,,,,,
,,,,,,,,sky,19.932,,,,,,613a8c117ff405c4017c9f92,614814ef975bba84fd885618,2021-09-19_22h59.02.077,Colour_Association_Experimentv1,2020.2.10,Win32,60,614813970c3839c5bfc24e99,,,,,3,0,3,0,1,,,,,,,
,,,,,,,,,2.3779,,,,,,613a8c117ff405c4017c9f92,614814ef975bba84fd885618,2021-09-19_22h59.02.077,Colour_Association_Experimentv1,2020.2.10,Win32,60,614813970c3839c5bfc24e99,,,,,4,0,4,0,1,,,,,,,
,,,,,,,,,,,,,,,613a8c117ff405c4017c9f92,614814ef975bba84fd885618,2021-09-19_22h59.02.077,Colour_Association_Experimentv1,2020.2.10,Win32,60,614813970c3839c5bfc24e99,,,6,PF,,,,,,space,0.2367,0,2,2,5,1
,,,,,,,, women,9.273,,,,,,613a8c117ff405c4017c9f92,614814ef975bba84fd885618,2021-09-19_22h59.02.077,Colour_Association_Experimentv1,2020.2.10,Win32,60,614813970c3839c5bfc24e99,,,9,FF,0,0,0,0,1,,,,,,,
,,,,,,,,nice,37.8632,,,,,,613a8c117ff405c4017c9f92,614814ef975bba84fd885618,2021-09-19_22h59.02.077,Colour_Association_Experimentv1,2020.2.10,Win32,60,614813970c3839c5bfc24e99,,,,,1,0,1,0,1,,,,,,,
,,,,,,,,,1.7295,,,,,,613a8c117ff405c4017c9f92,614814ef975bba84fd885618,2021-09-19_22h59.02.077,Colour_Association_Experimentv1,2020.2.10,Win32,60,614813970c3839c5bfc24e99,,,,,2,0,2,0,1,,,,,,,
,,,,,,,,,,,,,,,613a8c117ff405c4017c9f92,614814ef975bba84fd885618,2021-09-19_22h59.02.077,Colour_Association_Experimentv1,2020.2.10,Win32,60,614813970c3839c5bfc24e99,,,9,FF,,,,,,space,0.5533,0,3,3,8,1
,,,,,,,, sky,14.0769,,,,,,613a8c117ff405c4017c9f92,614814ef975bba84fd885618,2021-09-19_22h59.02.077,Colour_Association_Experimentv1,2020.2.10,Win32,60,614813970c3839c5bfc24e99,,,7,FF,0,0,0,0,1,,,,,,,
,,,,,,,,calm,16.08,,,,,,613a8c117ff405c4017c9f92,614814ef975bba84fd885618,2021-09-19_22h59.02.077,Colour_Association_Experimentv1,2020.2.10,Win32,60,614813970c3839c5bfc24e99,,,,,1,0,1,0,1,,,,,,,
,,,,,,,,weather,5.3278,,,,,,613a8c117ff405c4017c9f92,614814ef975bba84fd885618,2021-09-19_22h59.02.077,Colour_Association_Experimentv1,2020.2.10,Win32,60,614813970c3839c5bfc24e99,,,,,2,0,2,0,1,,,,,,,
,,,,,,,,marines,2.479,,,,,,613a8c117ff405c4017c9f92,614814ef975bba84fd885618,2021-09-19_22h59.02.077,Colour_Association_Experimentv1,2020.2.10,Win32,60,614813970c3839c5bfc24e99,,,,,3,0,3,0,1,,,,,,,
,,,,,,,, ,2.6312,,,,,,613a8c117ff405c4017c9f92,614814ef975bba84fd885618,2021-09-19_22h59.02.077,Colour_Association_Experimentv1,2020.2.10,Win32,60,614813970c3839c5bfc24e99,,,,,4,0,4,0,1,,,,,,,
,,,,,,,,,,,,,,,613a8c117ff405c4017c9f92,614814ef975bba84fd885618,2021-09-19_22h59.02.077,Colour_Association_Experimentv1,2020.2.10,Win32,60,614813970c3839c5bfc24e99,,,7,FF,,,,,,space,0.5695,0,4,4,6,1
,,,,,,,, funny,6.0974,,,,,,613a8c117ff405c4017c9f92,614814ef975bba84fd885618,2021-09-19_22h59.02.077,Colour_Association_Experimentv1,2020.2.10,Win32,60,614813970c3839c5bfc24e99,,,4,PF,0,0,0,0,1,,,,,,,
,,,,,,,,happy,2.4754,,,,,,613a8c117ff405c4017c9f92,614814ef975bba84fd885618,2021-09-19_22h59.02.077,Colour_Association_Experimentv1,2020.2.10,Win32,60,614813970c3839c5bfc24e99,,,,,1,0,1,0,1,,,,,,,
,,,,,,,,colorful,2.612,,,,,,613a8c117ff405c4017c9f92,614814ef975bba84fd885618,2021-09-19_22h59.02.077,Colour_Association_Experimentv1,2020.2.10,Win32,60,614813970c3839c5bfc24e99,,,,,2,0,2,0,1,,,,,,,
,,,,,,,,strong,3.6974,,,,,,613a8c117ff405c4017c9f92,614814ef975bba84fd885618,2021-09-19_22h59.02.077,Colour_Association_Experimentv1,2020.2.10,Win32,60,614813970c3839c5bfc24e99,,,,,3,0,3,0,1,,,,,,,
,,,,,,,,,6.1128,,,,,,613a8c117ff405c4017c9f92,614814ef975bba84fd885618,2021-09-19_22h59.02.077,Colour_Association_Experimentv1,2020.2.10,Win32,60,614813970c3839c5bfc24e99,,,,,4,0,4,0,1,,,,,,,
,,,,,,,,,,,,,,,613a8c117ff405c4017c9f92,614814ef975bba84fd885618,2021-09-19_22h59.02.077,Colour_Association_Experimentv1,2020.2.10,Win32,60,614813970c3839c5bfc24e99,,,4,PF,,,,,,space,0.0684,0,5,5,3,1
,,,,,,,, child,10.8571,,,,,,613a8c117ff405c4017c9f92,614814ef975bba84fd885618,2021-09-19_22h59.02.077,Colour_Association_Experimentv1,2020.2.10,Win32,60,614813970c3839c5bfc24e99,,,3,FF,0,0,0,0,1,,,,,,,
,,,,,,,,smile,5.2122,,,,,,613a8c117ff405c4017c9f92,614814ef975bba84fd885618,2021-09-19_22h59.02.077,Colour_Association_Experimentv1,2020.2.10,Win32,60,614813970c3839c5bfc24e99,,,,,1,0,1,0,1,,,,,,,
,,,,,,,,rainbow,20.8295,,,,,,613a8c117ff405c4017c9f92,614814ef975bba84fd885618,2021-09-19_22h59.02.077,Colour_Association_Experimentv1,2020.2.10,Win32,60,614813970c3839c5bfc24e99,,,,,2,0,2,0,1,,,,,,,
,,,,,,,,,1.762,,,,,,613a8c117ff405c4017c9f92,614814ef975bba84fd885618,2021-09-19_22h59.02.077,Colour_Association_Experimentv1,2020.2.10,Win32,60,614813970c3839c5bfc24e99,,,,,3,0,3,0,1,,,,,,,
,,,,,,,,,,,,,,,613a8c117ff405c4017c9f92,614814ef975bba84fd885618,2021-09-19_22h59.02.077,Colour_Association_Experimentv1,2020.2.10,Win32,60,614813970c3839c5bfc24e99,,,3,FF,,,,,,space,0.1867,0,6,6,2,1
,,,,,,,, sky,3.9763,,,,,,613a8c117ff405c4017c9f92,614814ef975bba84fd885618,2021-09-19_22h59.02.077,Colour_Association_Experimentv1,2020.2.10,Win32,60,614813970c3839c5bfc24e99,,,8,PF,0,0,0,0,1,,,,,,,
,,,,,,,,weather,4.6637,,,,,,613a8c117ff405c4017c9f92,614814ef975bba84fd885618,2021-09-19_22h59.02.077,Colour_Association_Experimentv1,2020.2.10,Win32,60,614813970c3839c5bfc24e99,,,,,1,0,1,0,1,,,,,,,
,,,,,,,,barney,9.3459,,,,,,613a8c117ff405c4017c9f92,614814ef975bba84fd885618,2021-09-19_22h59.02.077,Colour_Association_Experimentv1,2020.2.10,Win32,60,614813970c3839c5bfc24e99,,,,,2,0,2,0,1,,,,,,,
,,,,,,,,juice,7.9282,,,,,,613a8c117ff405c4017c9f92,614814ef975bba84fd885618,2021-09-19_22h59.02.077,Colour_Association_Experimentv1,2020.2.10,Win32,60,614813970c3839c5bfc24e99,,,,,3,0,3,0,1,,,,,,,
,,,,,,,,,1.8473,,,,,,613a8c117ff405c4017c9f92,614814ef975bba84fd885618,2021-09-19_22h59.02.077,Colour_Association_Experimentv1,2020.2.10,Win32,60,614813970c3839c5bfc24e99,,,,,4,0,4,0,1,,,,,,,
,,,,,,,,,,,,,,,613a8c117ff405c4017c9f92,614814ef975bba84fd885618,2021-09-19_22h59.02.077,Colour_Association_Experimentv1,2020.2.10,Win32,60,614813970c3839c5bfc24e99,,,8,PF,,,,,,space,0.0723,0,7,7,7,1
,,,,,,,, blood,3.0118,,,,,,613a8c117ff405c4017c9f92,614814ef975bba84fd885618,2021-09-19_22h59.02.077,Colour_Association_Experimentv1,2020.2.10,Win32,60,614813970c3839c5bfc24e99,,,1,FF,0,0,0,0,1,,,,,,,
,,,,,,,,love,2.5122,,,,,,613a8c117ff405c4017c9f92,614814ef975bba84fd885618,2021-09-19_22h59.02.077,Colour_Association_Experimentv1,2020.2.10,Win32,60,614813970c3839c5bfc24e99,,,,,1,0,1,0,1,,,,,,,
,,,,,,,,flowers,4.5818,,,,,,613a8c117ff405c4017c9f92,614814ef975bba84fd885618,2021-09-19_22h59.02.077,Colour_Association_Experimentv1,2020.2.10,Win32,60,614813970c3839c5bfc24e99,,,,,2,0,2,0,1,,,,,,,
,,,,,,,,happiness,9.4121,,,,,,613a8c117ff405c4017c9f92,614814ef975bba84fd885618,2021-09-19_22h59.02.077,Colour_Association_Experimentv1,2020.2.10,Win32,60,614813970c3839c5bfc24e99,,,,,3,0,3,0,1,,,,,,,
,,,,,,,,fire,6.2617,,,,,,613a8c117ff405c4017c9f92,614814ef975bba84fd885618,2021-09-19_22h59.02.077,Colour_Association_Experimentv1,2020.2.10,Win32,60,614813970c3839c5bfc24e99,,,,,4,0,4,0,1,,,,,,,
,,,,,,,,stop,7.7789,,,,,,613a8c117ff405c4017c9f92,614814ef975bba84fd885618,2021-09-19_22h59.02.077,Colour_Association_Experimentv1,2020.2.10,Win32,60,614813970c3839c5bfc24e99,,,,,5,0,5,0,1,,,,,,,
,,,,,,,,,3.6292,,,,,,613a8c117ff405c4017c9f92,614814ef975bba84fd885618,2021-09-19_22h59.02.077,Colour_Association_Experimentv1,2020.2.10,Win32,60,614813970c3839c5bfc24e99,,,,,6,0,6,0,1,,,,,,,
,,,,,,,,,,,,,,,613a8c117ff405c4017c9f92,614814ef975bba84fd885618,2021-09-19_22h59.02.077,Colour_Association_Experimentv1,2020.2.10,Win32,60,614813970c3839c5bfc24e99,,,1,FF,,,,,,,,0,8,8,0,1
