key_resp.keys,key_resp.rt,key_resp_2.keys,key_resp_2.rt,key_resp_3.keys,key_resp_3.rt,key_resp_4.keys,key_resp_4.rt,inputText,rt,pracassoc.thisRepN,pracassoc.thisTrialN,pracassoc.thisN,pracassoc.thisIndex,pracassoc.ran,participant,session,date,expName,psychopyVersion,OS,frameRate,study_id,key_resp_6.keys,key_resp_6.rt,Colour1,Ecc,assocresponse.thisRepN,assocresponse.thisTrialN,assocresponse.thisN,assocresponse.thisIndex,assocresponse.ran,key_resp_5.keys,key_resp_5.rt,trials.thisRepN,trials.thisTrialN,trials.thisN,trials.thisIndex,trials.ran
space,11.8286,space,76.0844,space,46.5863,space,1.1705, joy,26.1954,0,0,0,0,1,613ae6e178fbca0316c2b325,61481aeb9ffdd112ac081a38,2021-09-20_00h24.20.898,Colour_Association_Experimentv1,2020.2.10,MacIntel,60,614813970c3839c5bfc24e99,,,,,,,,,,,,,,,,
,,,,,,,,naiveness,25.7116,1,0,1,0,1,613ae6e178fbca0316c2b325,61481aeb9ffdd112ac081a38,2021-09-20_00h24.20.898,Colour_Association_Experimentv1,2020.2.10,MacIntel,60,614813970c3839c5bfc24e99,,,,,,,,,,,,,,,,
,,,,,,,,simplicity,4.8993,2,0,2,0,1,613ae6e178fbca0316c2b325,61481aeb9ffdd112ac081a38,2021-09-20_00h24.20.898,Colour_Association_Experimentv1,2020.2.10,MacIntel,60,614813970c3839c5bfc24e99,,,,,,,,,,,,,,,,
,,,,,,,,summer,16.4312,3,0,3,0,1,613ae6e178fbca0316c2b325,61481aeb9ffdd112ac081a38,2021-09-20_00h24.20.898,Colour_Association_Experimentv1,2020.2.10,MacIntel,60,614813970c3839c5bfc24e99,,,,,,,,,,,,,,,,
,,,,,,,,sun,1.8145,4,0,4,0,1,613ae6e178fbca0316c2b325,61481aeb9ffdd112ac081a38,2021-09-20_00h24.20.898,Colour_Association_Experimentv1,2020.2.10,MacIntel,60,614813970c3839c5bfc24e99,,,,,,,,,,,,,,,,
,,,,,,,,enjoyment,4.3152,5,0,5,0,1,613ae6e178fbca0316c2b325,61481aeb9ffdd112ac081a38,2021-09-20_00h24.20.898,Colour_Association_Experimentv1,2020.2.10,MacIntel,60,614813970c3839c5bfc24e99,,,,,,,,,,,,,,,,
,,,,,,,,youth,3.7148,6,0,6,0,1,613ae6e178fbca0316c2b325,61481aeb9ffdd112ac081a38,2021-09-20_00h24.20.898,Colour_Association_Experimentv1,2020.2.10,MacIntel,60,614813970c3839c5bfc24e99,,,,,,,,,,,,,,,,
,,,,,,,,energy,3.3993,7,0,7,0,1,613ae6e178fbca0316c2b325,61481aeb9ffdd112ac081a38,2021-09-20_00h24.20.898,Colour_Association_Experimentv1,2020.2.10,MacIntel,60,614813970c3839c5bfc24e99,,,,,,,,,,,,,,,,
,,,,,,,,light,1.947,8,0,8,0,1,613ae6e178fbca0316c2b325,61481aeb9ffdd112ac081a38,2021-09-20_00h24.20.898,Colour_Association_Experimentv1,2020.2.10,MacIntel,60,614813970c3839c5bfc24e99,,,,,,,,,,,,,,,,
,,,,,,,,lightning,27.7507,9,0,9,0,1,613ae6e178fbca0316c2b325,61481aeb9ffdd112ac081a38,2021-09-20_00h24.20.898,Colour_Association_Experimentv1,2020.2.10,MacIntel,60,614813970c3839c5bfc24e99,,,,,,,,,,,,,,,,
,,,,,,,, ,14.8158,10,0,10,0,1,613ae6e178fbca0316c2b325,61481aeb9ffdd112ac081a38,2021-09-20_00h24.20.898,Colour_Association_Experimentv1,2020.2.10,MacIntel,60,614813970c3839c5bfc24e99,,,,,,,,,,,,,,,,
,,,,,,,, life,11.3651,,,,,,613ae6e178fbca0316c2b325,61481aeb9ffdd112ac081a38,2021-09-20_00h24.20.898,Colour_Association_Experimentv1,2020.2.10,MacIntel,60,614813970c3839c5bfc24e99,space,1.5283,5,FF,0,0,0,0,1,,,,,,,
,,,,,,,,pureness,4.9309,,,,,,613ae6e178fbca0316c2b325,61481aeb9ffdd112ac081a38,2021-09-20_00h24.20.898,Colour_Association_Experimentv1,2020.2.10,MacIntel,60,614813970c3839c5bfc24e99,,,,,1,0,1,0,1,,,,,,,
,,,,,,,,wisdom,6.0301,,,,,,613ae6e178fbca0316c2b325,61481aeb9ffdd112ac081a38,2021-09-20_00h24.20.898,Colour_Association_Experimentv1,2020.2.10,MacIntel,60,614813970c3839c5bfc24e99,,,,,2,0,2,0,1,,,,,,,
,,,,,,,,,18.098,,,,,,613ae6e178fbca0316c2b325,61481aeb9ffdd112ac081a38,2021-09-20_00h24.20.898,Colour_Association_Experimentv1,2020.2.10,MacIntel,60,614813970c3839c5bfc24e99,,,,,3,0,3,0,1,,,,,,,
,,,,,,,,,,,,,,,613ae6e178fbca0316c2b325,61481aeb9ffdd112ac081a38,2021-09-20_00h24.20.898,Colour_Association_Experimentv1,2020.2.10,MacIntel,60,614813970c3839c5bfc24e99,,,5,FF,,,,,,space,0.1716,0,0,0,4,1
,,,,,,,, youth,11.882,,,,,,613ae6e178fbca0316c2b325,61481aeb9ffdd112ac081a38,2021-09-20_00h24.20.898,Colour_Association_Experimentv1,2020.2.10,MacIntel,60,614813970c3839c5bfc24e99,,,9,FF,0,0,0,0,1,,,,,,,
,,,,,,,,delicacy,16.1477,,,,,,613ae6e178fbca0316c2b325,61481aeb9ffdd112ac081a38,2021-09-20_00h24.20.898,Colour_Association_Experimentv1,2020.2.10,MacIntel,60,614813970c3839c5bfc24e99,,,,,1,0,1,0,1,,,,,,,
,,,,,,,,excitement,25.3483,,,,,,613ae6e178fbca0316c2b325,61481aeb9ffdd112ac081a38,2021-09-20_00h24.20.898,Colour_Association_Experimentv1,2020.2.10,MacIntel,60,614813970c3839c5bfc24e99,,,,,2,0,2,0,1,,,,,,,
,,,,,,,,fun,22.4656,,,,,,613ae6e178fbca0316c2b325,61481aeb9ffdd112ac081a38,2021-09-20_00h24.20.898,Colour_Association_Experimentv1,2020.2.10,MacIntel,60,614813970c3839c5bfc24e99,,,,,3,0,3,0,1,,,,,,,
,,,,,,,,daring,15.5143,,,,,,613ae6e178fbca0316c2b325,61481aeb9ffdd112ac081a38,2021-09-20_00h24.20.898,Colour_Association_Experimentv1,2020.2.10,MacIntel,60,614813970c3839c5bfc24e99,,,,,4,0,4,0,1,,,,,,,
,,,,,,,,,14.1497,,,,,,613ae6e178fbca0316c2b325,61481aeb9ffdd112ac081a38,2021-09-20_00h24.20.898,Colour_Association_Experimentv1,2020.2.10,MacIntel,60,614813970c3839c5bfc24e99,,,,,5,0,5,0,1,,,,,,,
,,,,,,,,,,,,,,,613ae6e178fbca0316c2b325,61481aeb9ffdd112ac081a38,2021-09-20_00h24.20.898,Colour_Association_Experimentv1,2020.2.10,MacIntel,60,614813970c3839c5bfc24e99,,,9,FF,,,,,,space,1.5103,0,1,1,8,1
,,,,,,,, energy,6.2145,,,,,,613ae6e178fbca0316c2b325,61481aeb9ffdd112ac081a38,2021-09-20_00h24.20.898,Colour_Association_Experimentv1,2020.2.10,MacIntel,60,614813970c3839c5bfc24e99,,,8,PF,0,0,0,0,1,,,,,,,
,,,,,,,,boldness,2.3648,,,,,,613ae6e178fbca0316c2b325,61481aeb9ffdd112ac081a38,2021-09-20_00h24.20.898,Colour_Association_Experimentv1,2020.2.10,MacIntel,60,614813970c3839c5bfc24e99,,,,,1,0,1,0,1,,,,,,,
,,,,,,,,feminism,9.3327,,,,,,613ae6e178fbca0316c2b325,61481aeb9ffdd112ac081a38,2021-09-20_00h24.20.898,Colour_Association_Experimentv1,2020.2.10,MacIntel,60,614813970c3839c5bfc24e99,,,,,2,0,2,0,1,,,,,,,
,,,,,,,,cheerfulness,26.6154,,,,,,613ae6e178fbca0316c2b325,61481aeb9ffdd112ac081a38,2021-09-20_00h24.20.898,Colour_Association_Experimentv1,2020.2.10,MacIntel,60,614813970c3839c5bfc24e99,,,,,3,0,3,0,1,,,,,,,
,,,,,,,,,11.4819,,,,,,613ae6e178fbca0316c2b325,61481aeb9ffdd112ac081a38,2021-09-20_00h24.20.898,Colour_Association_Experimentv1,2020.2.10,MacIntel,60,614813970c3839c5bfc24e99,,,,,4,0,4,0,1,,,,,,,
,,,,,,,,,,,,,,,613ae6e178fbca0316c2b325,61481aeb9ffdd112ac081a38,2021-09-20_00h24.20.898,Colour_Association_Experimentv1,2020.2.10,MacIntel,60,614813970c3839c5bfc24e99,,,8,PF,,,,,,space,1.0244,0,2,2,7,1
,,,,,,,, power,3.262,,,,,,613ae6e178fbca0316c2b325,61481aeb9ffdd112ac081a38,2021-09-20_00h24.20.898,Colour_Association_Experimentv1,2020.2.10,MacIntel,60,614813970c3839c5bfc24e99,,,7,FF,0,0,0,0,1,,,,,,,
,,,,,,,,majesty,35.8014,,,,,,613ae6e178fbca0316c2b325,61481aeb9ffdd112ac081a38,2021-09-20_00h24.20.898,Colour_Association_Experimentv1,2020.2.10,MacIntel,60,614813970c3839c5bfc24e99,,,,,1,0,1,0,1,,,,,,,
,,,,,,,,leadership,10.9494,,,,,,613ae6e178fbca0316c2b325,61481aeb9ffdd112ac081a38,2021-09-20_00h24.20.898,Colour_Association_Experimentv1,2020.2.10,MacIntel,60,614813970c3839c5bfc24e99,,,,,2,0,2,0,1,,,,,,,
,,,,,,,,,1.3469,,,,,,613ae6e178fbca0316c2b325,61481aeb9ffdd112ac081a38,2021-09-20_00h24.20.898,Colour_Association_Experimentv1,2020.2.10,MacIntel,60,614813970c3839c5bfc24e99,,,,,3,0,3,0,1,,,,,,,
,,,,,,,,,,,,,,,613ae6e178fbca0316c2b325,61481aeb9ffdd112ac081a38,2021-09-20_00h24.20.898,Colour_Association_Experimentv1,2020.2.10,MacIntel,60,614813970c3839c5bfc24e99,,,7,FF,,,,,,space,1.7934,0,3,3,6,1
,,,,,,,, joy,5.3807,,,,,,613ae6e178fbca0316c2b325,61481aeb9ffdd112ac081a38,2021-09-20_00h24.20.898,Colour_Association_Experimentv1,2020.2.10,MacIntel,60,614813970c3839c5bfc24e99,,,3,FF,0,0,0,0,1,,,,,,,
,,,,,,,,sun,1.2987,,,,,,613ae6e178fbca0316c2b325,61481aeb9ffdd112ac081a38,2021-09-20_00h24.20.898,Colour_Association_Experimentv1,2020.2.10,MacIntel,60,614813970c3839c5bfc24e99,,,,,1,0,1,0,1,,,,,,,
,,,,,,,,summer,1.3158,,,,,,613ae6e178fbca0316c2b325,61481aeb9ffdd112ac081a38,2021-09-20_00h24.20.898,Colour_Association_Experimentv1,2020.2.10,MacIntel,60,614813970c3839c5bfc24e99,,,,,2,0,2,0,1,,,,,,,
,,,,,,,,youth,2.0166,,,,,,613ae6e178fbca0316c2b325,61481aeb9ffdd112ac081a38,2021-09-20_00h24.20.898,Colour_Association_Experimentv1,2020.2.10,MacIntel,60,614813970c3839c5bfc24e99,,,,,3,0,3,0,1,,,,,,,
,,,,,,,,naiveness,2.4153,,,,,,613ae6e178fbca0316c2b325,61481aeb9ffdd112ac081a38,2021-09-20_00h24.20.898,Colour_Association_Experimentv1,2020.2.10,MacIntel,60,614813970c3839c5bfc24e99,,,,,4,0,4,0,1,,,,,,,
,,,,,,,,energy,1.6145,,,,,,613ae6e178fbca0316c2b325,61481aeb9ffdd112ac081a38,2021-09-20_00h24.20.898,Colour_Association_Experimentv1,2020.2.10,MacIntel,60,614813970c3839c5bfc24e99,,,,,5,0,5,0,1,,,,,,,
,,,,,,,,,1.5999,,,,,,613ae6e178fbca0316c2b325,61481aeb9ffdd112ac081a38,2021-09-20_00h24.20.898,Colour_Association_Experimentv1,2020.2.10,MacIntel,60,614813970c3839c5bfc24e99,,,,,6,0,6,0,1,,,,,,,
,,,,,,,,,,,,,,,613ae6e178fbca0316c2b325,61481aeb9ffdd112ac081a38,2021-09-20_00h24.20.898,Colour_Association_Experimentv1,2020.2.10,MacIntel,60,614813970c3839c5bfc24e99,,,3,FF,,,,,,space,1.2716,0,4,4,2,1
,,,,,,,, immaturity,27.2644,,,,,,613ae6e178fbca0316c2b325,61481aeb9ffdd112ac081a38,2021-09-20_00h24.20.898,Colour_Association_Experimentv1,2020.2.10,MacIntel,60,614813970c3839c5bfc24e99,,,4,PF,0,0,0,0,1,,,,,,,
,,,,,,,,amusement,16.2323,,,,,,613ae6e178fbca0316c2b325,61481aeb9ffdd112ac081a38,2021-09-20_00h24.20.898,Colour_Association_Experimentv1,2020.2.10,MacIntel,60,614813970c3839c5bfc24e99,,,,,1,0,1,0,1,,,,,,,
,,,,,,,,,1.0135,,,,,,613ae6e178fbca0316c2b325,61481aeb9ffdd112ac081a38,2021-09-20_00h24.20.898,Colour_Association_Experimentv1,2020.2.10,MacIntel,60,614813970c3839c5bfc24e99,,,,,2,0,2,0,1,,,,,,,
,,,,,,,,,,,,,,,613ae6e178fbca0316c2b325,61481aeb9ffdd112ac081a38,2021-09-20_00h24.20.898,Colour_Association_Experimentv1,2020.2.10,MacIntel,60,614813970c3839c5bfc24e99,,,4,PF,,,,,,space,1.3746,0,5,5,3,1
,,,,,,,, rage,2.0792,,,,,,613ae6e178fbca0316c2b325,61481aeb9ffdd112ac081a38,2021-09-20_00h24.20.898,Colour_Association_Experimentv1,2020.2.10,MacIntel,60,614813970c3839c5bfc24e99,,,1,FF,0,0,0,0,1,,,,,,,
,,,,,,,,blood,2.0326,,,,,,613ae6e178fbca0316c2b325,61481aeb9ffdd112ac081a38,2021-09-20_00h24.20.898,Colour_Association_Experimentv1,2020.2.10,MacIntel,60,614813970c3839c5bfc24e99,,,,,1,0,1,0,1,,,,,,,
,,,,,,,,violence,3.5656,,,,,,613ae6e178fbca0316c2b325,61481aeb9ffdd112ac081a38,2021-09-20_00h24.20.898,Colour_Association_Experimentv1,2020.2.10,MacIntel,60,614813970c3839c5bfc24e99,,,,,2,0,2,0,1,,,,,,,
,,,,,,,,anxiety,9.7476,,,,,,613ae6e178fbca0316c2b325,61481aeb9ffdd112ac081a38,2021-09-20_00h24.20.898,Colour_Association_Experimentv1,2020.2.10,MacIntel,60,614813970c3839c5bfc24e99,,,,,3,0,3,0,1,,,,,,,
,,,,,,,,exaltation,28.8984,,,,,,613ae6e178fbca0316c2b325,61481aeb9ffdd112ac081a38,2021-09-20_00h24.20.898,Colour_Association_Experimentv1,2020.2.10,MacIntel,60,614813970c3839c5bfc24e99,,,,,4,0,4,0,1,,,,,,,
,,,,,,,,,1.5319,,,,,,613ae6e178fbca0316c2b325,61481aeb9ffdd112ac081a38,2021-09-20_00h24.20.898,Colour_Association_Experimentv1,2020.2.10,MacIntel,60,614813970c3839c5bfc24e99,,,,,5,0,5,0,1,,,,,,,
,,,,,,,,,,,,,,,613ae6e178fbca0316c2b325,61481aeb9ffdd112ac081a38,2021-09-20_00h24.20.898,Colour_Association_Experimentv1,2020.2.10,MacIntel,60,614813970c3839c5bfc24e99,,,1,FF,,,,,,space,1.5016,0,6,6,0,1
,,,,,,,, maturity,14.9807,,,,,,613ae6e178fbca0316c2b325,61481aeb9ffdd112ac081a38,2021-09-20_00h24.20.898,Colour_Association_Experimentv1,2020.2.10,MacIntel,60,614813970c3839c5bfc24e99,,,2,PF,0,0,0,0,1,,,,,,,
,,,,,,,,concentration,5.215,,,,,,613ae6e178fbca0316c2b325,61481aeb9ffdd112ac081a38,2021-09-20_00h24.20.898,Colour_Association_Experimentv1,2020.2.10,MacIntel,60,614813970c3839c5bfc24e99,,,,,1,0,1,0,1,,,,,,,
,,,,,,,,autumn,12.715,,,,,,613ae6e178fbca0316c2b325,61481aeb9ffdd112ac081a38,2021-09-20_00h24.20.898,Colour_Association_Experimentv1,2020.2.10,MacIntel,60,614813970c3839c5bfc24e99,,,,,2,0,2,0,1,,,,,,,
,,,,,,,,happiness,13.8484,,,,,,613ae6e178fbca0316c2b325,61481aeb9ffdd112ac081a38,2021-09-20_00h24.20.898,Colour_Association_Experimentv1,2020.2.10,MacIntel,60,614813970c3839c5bfc24e99,,,,,3,0,3,0,1,,,,,,,
,,,,,,,,,1.9982,,,,,,613ae6e178fbca0316c2b325,61481aeb9ffdd112ac081a38,2021-09-20_00h24.20.898,Colour_Association_Experimentv1,2020.2.10,MacIntel,60,614813970c3839c5bfc24e99,,,,,4,0,4,0,1,,,,,,,
,,,,,,,,,,,,,,,613ae6e178fbca0316c2b325,61481aeb9ffdd112ac081a38,2021-09-20_00h24.20.898,Colour_Association_Experimentv1,2020.2.10,MacIntel,60,614813970c3839c5bfc24e99,,,2,PF,,,,,,space,1.3057,0,7,7,1,1
,,,,,,,, sky,3.3445,,,,,,613ae6e178fbca0316c2b325,61481aeb9ffdd112ac081a38,2021-09-20_00h24.20.898,Colour_Association_Experimentv1,2020.2.10,MacIntel,60,614813970c3839c5bfc24e99,,,6,PF,0,0,0,0,1,,,,,,,
,,,,,,,,beauty,3.3989,,,,,,613ae6e178fbca0316c2b325,61481aeb9ffdd112ac081a38,2021-09-20_00h24.20.898,Colour_Association_Experimentv1,2020.2.10,MacIntel,60,614813970c3839c5bfc24e99,,,,,1,0,1,0,1,,,,,,,
,,,,,,,,peace,2.2646,,,,,,613ae6e178fbca0316c2b325,61481aeb9ffdd112ac081a38,2021-09-20_00h24.20.898,Colour_Association_Experimentv1,2020.2.10,MacIntel,60,614813970c3839c5bfc24e99,,,,,2,0,2,0,1,,,,,,,
,,,,,,,,knowledge,11.7002,,,,,,613ae6e178fbca0316c2b325,61481aeb9ffdd112ac081a38,2021-09-20_00h24.20.898,Colour_Association_Experimentv1,2020.2.10,MacIntel,60,614813970c3839c5bfc24e99,,,,,3,0,3,0,1,,,,,,,
,,,,,,,,tranqulity,9.6318,,,,,,613ae6e178fbca0316c2b325,61481aeb9ffdd112ac081a38,2021-09-20_00h24.20.898,Colour_Association_Experimentv1,2020.2.10,MacIntel,60,614813970c3839c5bfc24e99,,,,,4,0,4,0,1,,,,,,,
,,,,,,,,mindfulness,8.6304,,,,,,613ae6e178fbca0316c2b325,61481aeb9ffdd112ac081a38,2021-09-20_00h24.20.898,Colour_Association_Experimentv1,2020.2.10,MacIntel,60,614813970c3839c5bfc24e99,,,,,5,0,5,0,1,,,,,,,
,,,,,,,,innocence,15.0831,,,,,,613ae6e178fbca0316c2b325,61481aeb9ffdd112ac081a38,2021-09-20_00h24.20.898,Colour_Association_Experimentv1,2020.2.10,MacIntel,60,614813970c3839c5bfc24e99,,,,,6,0,6,0,1,,,,,,,
,,,,,,,,,1.3969,,,,,,613ae6e178fbca0316c2b325,61481aeb9ffdd112ac081a38,2021-09-20_00h24.20.898,Colour_Association_Experimentv1,2020.2.10,MacIntel,60,614813970c3839c5bfc24e99,,,,,7,0,7,0,1,,,,,,,
,,,,,,,,,,,,,,,613ae6e178fbca0316c2b325,61481aeb9ffdd112ac081a38,2021-09-20_00h24.20.898,Colour_Association_Experimentv1,2020.2.10,MacIntel,60,614813970c3839c5bfc24e99,,,6,PF,,,,,,,,0,8,8,5,1
