key_resp.keys,key_resp.rt,key_resp_2.keys,key_resp_2.rt,key_resp_3.keys,key_resp_3.rt,key_resp_4.keys,key_resp_4.rt,inputText,rt,pracassoc.thisRepN,pracassoc.thisTrialN,pracassoc.thisN,pracassoc.thisIndex,pracassoc.ran,participant,session,date,expName,psychopyVersion,OS,frameRate,study_id,key_resp_6.keys,key_resp_6.rt,Colour1,Ecc,assocresponse.thisRepN,assocresponse.thisTrialN,assocresponse.thisN,assocresponse.thisIndex,assocresponse.ran,key_resp_5.keys,key_resp_5.rt,trials.thisRepN,trials.thisTrialN,trials.thisN,trials.thisIndex,trials.ran
space,4.711,space,6.84,space,8.337,space,14.619,sunflower,30.328,0,0,0,0,1,613fbae487b5bc74d4234066,614815e0221956b19fa5ae00,2021-09-20_00h02.55.373,Colour_Association_Experimentv1,2020.2.10,Win32,60,614813970c3839c5bfc24e99,,,,,,,,,,,,,,,,
,,,,,,,,sun,4.615,1,0,1,0,1,613fbae487b5bc74d4234066,614815e0221956b19fa5ae00,2021-09-20_00h02.55.373,Colour_Association_Experimentv1,2020.2.10,Win32,60,614813970c3839c5bfc24e99,,,,,,,,,,,,,,,,
,,,,,,,,vainilla,5.165,2,0,2,0,1,613fbae487b5bc74d4234066,614815e0221956b19fa5ae00,2021-09-20_00h02.55.373,Colour_Association_Experimentv1,2020.2.10,Win32,60,614813970c3839c5bfc24e99,,,,,,,,,,,,,,,,
,,,,,,,,raice,13.232,3,0,3,0,1,613fbae487b5bc74d4234066,614815e0221956b19fa5ae00,2021-09-20_00h02.55.373,Colour_Association_Experimentv1,2020.2.10,Win32,60,614813970c3839c5bfc24e99,,,,,,,,,,,,,,,,
,,,,,,,,n,15.749,4,0,4,0,1,613fbae487b5bc74d4234066,614815e0221956b19fa5ae00,2021-09-20_00h02.55.373,Colour_Association_Experimentv1,2020.2.10,Win32,60,614813970c3839c5bfc24e99,,,,,,,,,,,,,,,,
,,,,,,,, sky,11.815,,,,,,613fbae487b5bc74d4234066,614815e0221956b19fa5ae00,2021-09-20_00h02.55.373,Colour_Association_Experimentv1,2020.2.10,Win32,60,614813970c3839c5bfc24e99,space,1.27,7,FF,0,0,0,0,1,,,,,,,
,,,,,,,,moon,4.432,,,,,,613fbae487b5bc74d4234066,614815e0221956b19fa5ae00,2021-09-20_00h02.55.373,Colour_Association_Experimentv1,2020.2.10,Win32,60,614813970c3839c5bfc24e99,,,,,1,0,1,0,1,,,,,,,
,,,,,,,,ocean,3.282,,,,,,613fbae487b5bc74d4234066,614815e0221956b19fa5ae00,2021-09-20_00h02.55.373,Colour_Association_Experimentv1,2020.2.10,Win32,60,614813970c3839c5bfc24e99,,,,,2,0,2,0,1,,,,,,,
,,,,,,,,facebook,5.882,,,,,,613fbae487b5bc74d4234066,614815e0221956b19fa5ae00,2021-09-20_00h02.55.373,Colour_Association_Experimentv1,2020.2.10,Win32,60,614813970c3839c5bfc24e99,,,,,3,0,3,0,1,,,,,,,
,,,,,,,,wallmart,6.481,,,,,,613fbae487b5bc74d4234066,614815e0221956b19fa5ae00,2021-09-20_00h02.55.373,Colour_Association_Experimentv1,2020.2.10,Win32,60,614813970c3839c5bfc24e99,,,,,4,0,4,0,1,,,,,,,
,,,,,,,,blueberrie,7.549,,,,,,613fbae487b5bc74d4234066,614815e0221956b19fa5ae00,2021-09-20_00h02.55.373,Colour_Association_Experimentv1,2020.2.10,Win32,60,614813970c3839c5bfc24e99,,,,,5,0,5,0,1,,,,,,,
,,,,,,,,,2.065,,,,,,613fbae487b5bc74d4234066,614815e0221956b19fa5ae00,2021-09-20_00h02.55.373,Colour_Association_Experimentv1,2020.2.10,Win32,60,614813970c3839c5bfc24e99,,,,,6,0,6,0,1,,,,,,,
,,,,,,,,,3.933,,,,,,613fbae487b5bc74d4234066,614815e0221956b19fa5ae00,2021-09-20_00h02.55.373,Colour_Association_Experimentv1,2020.2.10,Win32,60,614813970c3839c5bfc24e99,,,,,7,0,7,0,1,,,,,,,
,,,,,,,,,2.316,,,,,,613fbae487b5bc74d4234066,614815e0221956b19fa5ae00,2021-09-20_00h02.55.373,Colour_Association_Experimentv1,2020.2.10,Win32,60,614813970c3839c5bfc24e99,,,,,8,0,8,0,1,,,,,,,
,,,,,,,,,6.317,,,,,,613fbae487b5bc74d4234066,614815e0221956b19fa5ae00,2021-09-20_00h02.55.373,Colour_Association_Experimentv1,2020.2.10,Win32,60,614813970c3839c5bfc24e99,,,,,9,0,9,0,1,,,,,,,
,,,,,,,,,,,,,,,613fbae487b5bc74d4234066,614815e0221956b19fa5ae00,2021-09-20_00h02.55.373,Colour_Association_Experimentv1,2020.2.10,Win32,60,614813970c3839c5bfc24e99,,,7,FF,,,,,,space,1.219,0,0,0,6,1
,,,,,,,, mexico,8.682,,,,,,613fbae487b5bc74d4234066,614815e0221956b19fa5ae00,2021-09-20_00h02.55.373,Colour_Association_Experimentv1,2020.2.10,Win32,60,614813970c3839c5bfc24e99,,,9,FF,0,0,0,0,1,,,,,,,
,,,,,,,,fashion,6.816,,,,,,613fbae487b5bc74d4234066,614815e0221956b19fa5ae00,2021-09-20_00h02.55.373,Colour_Association_Experimentv1,2020.2.10,Win32,60,614813970c3839c5bfc24e99,,,,,1,0,1,0,1,,,,,,,
,,,,,,,,rose,22.917,,,,,,613fbae487b5bc74d4234066,614815e0221956b19fa5ae00,2021-09-20_00h02.55.373,Colour_Association_Experimentv1,2020.2.10,Win32,60,614813970c3839c5bfc24e99,,,,,2,0,2,0,1,,,,,,,
,,,,,,,,,5.265,,,,,,613fbae487b5bc74d4234066,614815e0221956b19fa5ae00,2021-09-20_00h02.55.373,Colour_Association_Experimentv1,2020.2.10,Win32,60,614813970c3839c5bfc24e99,,,,,3,0,3,0,1,,,,,,,
,,,,,,,,,,,,,,,613fbae487b5bc74d4234066,614815e0221956b19fa5ae00,2021-09-20_00h02.55.373,Colour_Association_Experimentv1,2020.2.10,Win32,60,614813970c3839c5bfc24e99,,,9,FF,,,,,,space,0.02,0,1,1,8,1
,,,,,,,, pain,12.115,,,,,,613fbae487b5bc74d4234066,614815e0221956b19fa5ae00,2021-09-20_00h02.55.373,Colour_Association_Experimentv1,2020.2.10,Win32,60,614813970c3839c5bfc24e99,,,8,PF,0,0,0,0,1,,,,,,,
,,,,,,,,halloween,14.014,,,,,,613fbae487b5bc74d4234066,614815e0221956b19fa5ae00,2021-09-20_00h02.55.373,Colour_Association_Experimentv1,2020.2.10,Win32,60,614813970c3839c5bfc24e99,,,,,1,0,1,0,1,,,,,,,
,,,,,,,,,9.098,,,,,,613fbae487b5bc74d4234066,614815e0221956b19fa5ae00,2021-09-20_00h02.55.373,Colour_Association_Experimentv1,2020.2.10,Win32,60,614813970c3839c5bfc24e99,,,,,2,0,2,0,1,,,,,,,
,,,,,,,,,,,,,,,613fbae487b5bc74d4234066,614815e0221956b19fa5ae00,2021-09-20_00h02.55.373,Colour_Association_Experimentv1,2020.2.10,Win32,60,614813970c3839c5bfc24e99,,,8,PF,,,,,,space,1.714,0,2,2,7,1
,,,,,,,, sky,6.862,,,,,,613fbae487b5bc74d4234066,614815e0221956b19fa5ae00,2021-09-20_00h02.55.373,Colour_Association_Experimentv1,2020.2.10,Win32,60,614813970c3839c5bfc24e99,,,6,PF,0,0,0,0,1,,,,,,,
,,,,,,,,light,5.464,,,,,,613fbae487b5bc74d4234066,614815e0221956b19fa5ae00,2021-09-20_00h02.55.373,Colour_Association_Experimentv1,2020.2.10,Win32,60,614813970c3839c5bfc24e99,,,,,1,0,1,0,1,,,,,,,
,,,,,,,,milk,6.814,,,,,,613fbae487b5bc74d4234066,614815e0221956b19fa5ae00,2021-09-20_00h02.55.373,Colour_Association_Experimentv1,2020.2.10,Win32,60,614813970c3839c5bfc24e99,,,,,2,0,2,0,1,,,,,,,
,,,,,,,,freedom,5.864,,,,,,613fbae487b5bc74d4234066,614815e0221956b19fa5ae00,2021-09-20_00h02.55.373,Colour_Association_Experimentv1,2020.2.10,Win32,60,614813970c3839c5bfc24e99,,,,,3,0,3,0,1,,,,,,,
,,,,,,,,summer,8.85,,,,,,613fbae487b5bc74d4234066,614815e0221956b19fa5ae00,2021-09-20_00h02.55.373,Colour_Association_Experimentv1,2020.2.10,Win32,60,614813970c3839c5bfc24e99,,,,,4,0,4,0,1,,,,,,,
,,,,,,,,,11.347,,,,,,613fbae487b5bc74d4234066,614815e0221956b19fa5ae00,2021-09-20_00h02.55.373,Colour_Association_Experimentv1,2020.2.10,Win32,60,614813970c3839c5bfc24e99,,,,,5,0,5,0,1,,,,,,,
,,,,,,,,,,,,,,,613fbae487b5bc74d4234066,614815e0221956b19fa5ae00,2021-09-20_00h02.55.373,Colour_Association_Experimentv1,2020.2.10,Win32,60,614813970c3839c5bfc24e99,,,6,PF,,,,,,space,3.337,0,3,3,5,1
,,,,,,,, blood,9.979,,,,,,613fbae487b5bc74d4234066,614815e0221956b19fa5ae00,2021-09-20_00h02.55.373,Colour_Association_Experimentv1,2020.2.10,Win32,60,614813970c3839c5bfc24e99,,,1,FF,0,0,0,0,1,,,,,,,
,,,,,,,,women,6.898,,,,,,613fbae487b5bc74d4234066,614815e0221956b19fa5ae00,2021-09-20_00h02.55.373,Colour_Association_Experimentv1,2020.2.10,Win32,60,614813970c3839c5bfc24e99,,,,,1,0,1,0,1,,,,,,,
,,,,,,,,life,2.146,,,,,,613fbae487b5bc74d4234066,614815e0221956b19fa5ae00,2021-09-20_00h02.55.373,Colour_Association_Experimentv1,2020.2.10,Win32,60,614813970c3839c5bfc24e99,,,,,2,0,2,0,1,,,,,,,
,,,,,,,,love,3.148,,,,,,613fbae487b5bc74d4234066,614815e0221956b19fa5ae00,2021-09-20_00h02.55.373,Colour_Association_Experimentv1,2020.2.10,Win32,60,614813970c3839c5bfc24e99,,,,,3,0,3,0,1,,,,,,,
,,,,,,,,hurt,2.898,,,,,,613fbae487b5bc74d4234066,614815e0221956b19fa5ae00,2021-09-20_00h02.55.373,Colour_Association_Experimentv1,2020.2.10,Win32,60,614813970c3839c5bfc24e99,,,,,4,0,4,0,1,,,,,,,
,,,,,,,,rosee,9.28,,,,,,613fbae487b5bc74d4234066,614815e0221956b19fa5ae00,2021-09-20_00h02.55.373,Colour_Association_Experimentv1,2020.2.10,Win32,60,614813970c3839c5bfc24e99,,,,,5,0,5,0,1,,,,,,,
,,,,,,,,rubi,5.78,,,,,,613fbae487b5bc74d4234066,614815e0221956b19fa5ae00,2021-09-20_00h02.55.373,Colour_Association_Experimentv1,2020.2.10,Win32,60,614813970c3839c5bfc24e99,,,,,6,0,6,0,1,,,,,,,
,,,,,,,,hot,13.998,,,,,,613fbae487b5bc74d4234066,614815e0221956b19fa5ae00,2021-09-20_00h02.55.373,Colour_Association_Experimentv1,2020.2.10,Win32,60,614813970c3839c5bfc24e99,,,,,7,0,7,0,1,,,,,,,
,,,,,,,,,4.246,,,,,,613fbae487b5bc74d4234066,614815e0221956b19fa5ae00,2021-09-20_00h02.55.373,Colour_Association_Experimentv1,2020.2.10,Win32,60,614813970c3839c5bfc24e99,,,,,8,0,8,0,1,,,,,,,
,,,,,,,,,,,,,,,613fbae487b5bc74d4234066,614815e0221956b19fa5ae00,2021-09-20_00h02.55.373,Colour_Association_Experimentv1,2020.2.10,Win32,60,614813970c3839c5bfc24e99,,,1,FF,,,,,,space,2.622,0,4,4,0,1
,,,,,,,, neon,5.259,,,,,,613fbae487b5bc74d4234066,614815e0221956b19fa5ae00,2021-09-20_00h02.55.373,Colour_Association_Experimentv1,2020.2.10,Win32,60,614813970c3839c5bfc24e99,,,4,PF,0,0,0,0,1,,,,,,,
,,,,,,,,night,5.198,,,,,,613fbae487b5bc74d4234066,614815e0221956b19fa5ae00,2021-09-20_00h02.55.373,Colour_Association_Experimentv1,2020.2.10,Win32,60,614813970c3839c5bfc24e99,,,,,1,0,1,0,1,,,,,,,
,,,,,,,,neon party,7.115,,,,,,613fbae487b5bc74d4234066,614815e0221956b19fa5ae00,2021-09-20_00h02.55.373,Colour_Association_Experimentv1,2020.2.10,Win32,60,614813970c3839c5bfc24e99,,,,,2,0,2,0,1,,,,,,,
,,,,,,,,accesories,7.381,,,,,,613fbae487b5bc74d4234066,614815e0221956b19fa5ae00,2021-09-20_00h02.55.373,Colour_Association_Experimentv1,2020.2.10,Win32,60,614813970c3839c5bfc24e99,,,,,3,0,3,0,1,,,,,,,
,,,,,,,,,1.998,,,,,,613fbae487b5bc74d4234066,614815e0221956b19fa5ae00,2021-09-20_00h02.55.373,Colour_Association_Experimentv1,2020.2.10,Win32,60,614813970c3839c5bfc24e99,,,,,4,0,4,0,1,,,,,,,
,,,,,,,,,,,,,,,613fbae487b5bc74d4234066,614815e0221956b19fa5ae00,2021-09-20_00h02.55.373,Colour_Association_Experimentv1,2020.2.10,Win32,60,614813970c3839c5bfc24e99,,,4,PF,,,,,,space,1.772,0,5,5,3,1
,,,,,,,, vintage,16.695,,,,,,613fbae487b5bc74d4234066,614815e0221956b19fa5ae00,2021-09-20_00h02.55.373,Colour_Association_Experimentv1,2020.2.10,Win32,60,614813970c3839c5bfc24e99,,,5,FF,0,0,0,0,1,,,,,,,
,,,,,,,,birthdaycake,7.665,,,,,,613fbae487b5bc74d4234066,614815e0221956b19fa5ae00,2021-09-20_00h02.55.373,Colour_Association_Experimentv1,2020.2.10,Win32,60,614813970c3839c5bfc24e99,,,,,1,0,1,0,1,,,,,,,
,,,,,,,,jade,6.431,,,,,,613fbae487b5bc74d4234066,614815e0221956b19fa5ae00,2021-09-20_00h02.55.373,Colour_Association_Experimentv1,2020.2.10,Win32,60,614813970c3839c5bfc24e99,,,,,2,0,2,0,1,,,,,,,
,,,,,,,,,1.647,,,,,,613fbae487b5bc74d4234066,614815e0221956b19fa5ae00,2021-09-20_00h02.55.373,Colour_Association_Experimentv1,2020.2.10,Win32,60,614813970c3839c5bfc24e99,,,,,3,0,3,0,1,,,,,,,
,,,,,,,,,,,,,,,613fbae487b5bc74d4234066,614815e0221956b19fa5ae00,2021-09-20_00h02.55.373,Colour_Association_Experimentv1,2020.2.10,Win32,60,614813970c3839c5bfc24e99,,,5,FF,,,,,,space,1.205,0,6,6,4,1
,,,,,,,, neon,5.263,,,,,,613fbae487b5bc74d4234066,614815e0221956b19fa5ae00,2021-09-20_00h02.55.373,Colour_Association_Experimentv1,2020.2.10,Win32,60,614813970c3839c5bfc24e99,,,3,FF,0,0,0,0,1,,,,,,,
,,,,,,,,summer,3.162,,,,,,613fbae487b5bc74d4234066,614815e0221956b19fa5ae00,2021-09-20_00h02.55.373,Colour_Association_Experimentv1,2020.2.10,Win32,60,614813970c3839c5bfc24e99,,,,,1,0,1,0,1,,,,,,,
,,,,,,,,teniss,10.132,,,,,,613fbae487b5bc74d4234066,614815e0221956b19fa5ae00,2021-09-20_00h02.55.373,Colour_Association_Experimentv1,2020.2.10,Win32,60,614813970c3839c5bfc24e99,,,,,2,0,2,0,1,,,,,,,
,,,,,,,,,0.981,,,,,,613fbae487b5bc74d4234066,614815e0221956b19fa5ae00,2021-09-20_00h02.55.373,Colour_Association_Experimentv1,2020.2.10,Win32,60,614813970c3839c5bfc24e99,,,,,3,0,3,0,1,,,,,,,
,,,,,,,,,,,,,,,613fbae487b5bc74d4234066,614815e0221956b19fa5ae00,2021-09-20_00h02.55.373,Colour_Association_Experimentv1,2020.2.10,Win32,60,614813970c3839c5bfc24e99,,,3,FF,,,,,,space,0.987,0,7,7,2,1
,,,,,,,, halloween,5.945,,,,,,613fbae487b5bc74d4234066,614815e0221956b19fa5ae00,2021-09-20_00h02.55.373,Colour_Association_Experimentv1,2020.2.10,Win32,60,614813970c3839c5bfc24e99,,,2,PF,0,0,0,0,1,,,,,,,
,,,,,,,,pumpkin,8.084,,,,,,613fbae487b5bc74d4234066,614815e0221956b19fa5ae00,2021-09-20_00h02.55.373,Colour_Association_Experimentv1,2020.2.10,Win32,60,614813970c3839c5bfc24e99,,,,,1,0,1,0,1,,,,,,,
,,,,,,,,october,5.763,,,,,,613fbae487b5bc74d4234066,614815e0221956b19fa5ae00,2021-09-20_00h02.55.373,Colour_Association_Experimentv1,2020.2.10,Win32,60,614813970c3839c5bfc24e99,,,,,2,0,2,0,1,,,,,,,
,,,,,,,,november,3.85,,,,,,613fbae487b5bc74d4234066,614815e0221956b19fa5ae00,2021-09-20_00h02.55.373,Colour_Association_Experimentv1,2020.2.10,Win32,60,614813970c3839c5bfc24e99,,,,,3,0,3,0,1,,,,,,,
,,,,,,,,autun,4.846,,,,,,613fbae487b5bc74d4234066,614815e0221956b19fa5ae00,2021-09-20_00h02.55.373,Colour_Association_Experimentv1,2020.2.10,Win32,60,614813970c3839c5bfc24e99,,,,,4,0,4,0,1,,,,,,,
,,,,,,,,virgo,3.779,,,,,,613fbae487b5bc74d4234066,614815e0221956b19fa5ae00,2021-09-20_00h02.55.373,Colour_Association_Experimentv1,2020.2.10,Win32,60,614813970c3839c5bfc24e99,,,,,5,0,5,0,1,,,,,,,
,,,,,,,,,12.43,,,,,,613fbae487b5bc74d4234066,614815e0221956b19fa5ae00,2021-09-20_00h02.55.373,Colour_Association_Experimentv1,2020.2.10,Win32,60,614813970c3839c5bfc24e99,,,,,6,0,6,0,1,,,,,,,
,,,,,,,,,,,,,,,613fbae487b5bc74d4234066,614815e0221956b19fa5ae00,2021-09-20_00h02.55.373,Colour_Association_Experimentv1,2020.2.10,Win32,60,614813970c3839c5bfc24e99,,,2,PF,,,,,,,,0,8,8,1,1
