key_resp.keys,key_resp.rt,key_resp_2.keys,key_resp_2.rt,key_resp_3.keys,key_resp_3.rt,key_resp_4.keys,key_resp_4.rt,inputText,rt,pracassoc.thisRepN,pracassoc.thisTrialN,pracassoc.thisN,pracassoc.thisIndex,pracassoc.ran,participant,session,date,expName,psychopyVersion,OS,frameRate,study_id,key_resp_6.keys,key_resp_6.rt,Colour1,Ecc,assocresponse.thisRepN,assocresponse.thisTrialN,assocresponse.thisN,assocresponse.thisIndex,assocresponse.ran,key_resp_5.keys,key_resp_5.rt,trials.thisRepN,trials.thisTrialN,trials.thisN,trials.thisIndex,trials.ran
space,2.9403,space,55.9563,space,8.8159,space,16.9363, spring,10.0005,0,0,0,0,1,614009d626146bb34ae7a1cf,614817ae82c5770ec9a562c6,2021-09-19_22h12.19.063,Colour_Association_Experimentv1,2020.2.10,Win32,60,614813970c3839c5bfc24e99,,,,,,,,,,,,,,,,
,,,,,,,,flowers,4.0603,1,0,1,0,1,614009d626146bb34ae7a1cf,614817ae82c5770ec9a562c6,2021-09-19_22h12.19.063,Colour_Association_Experimentv1,2020.2.10,Win32,60,614813970c3839c5bfc24e99,,,,,,,,,,,,,,,,
,,,,,,,,fryes,2.6298,2,0,2,0,1,614009d626146bb34ae7a1cf,614817ae82c5770ec9a562c6,2021-09-19_22h12.19.063,Colour_Association_Experimentv1,2020.2.10,Win32,60,614813970c3839c5bfc24e99,,,,,,,,,,,,,,,,
,,,,,,,,sun,4.0981,3,0,3,0,1,614009d626146bb34ae7a1cf,614817ae82c5770ec9a562c6,2021-09-19_22h12.19.063,Colour_Association_Experimentv1,2020.2.10,Win32,60,614813970c3839c5bfc24e99,,,,,,,,,,,,,,,,
,,,,,,,,sunny day,4.829,4,0,4,0,1,614009d626146bb34ae7a1cf,614817ae82c5770ec9a562c6,2021-09-19_22h12.19.063,Colour_Association_Experimentv1,2020.2.10,Win32,60,614813970c3839c5bfc24e99,,,,,,,,,,,,,,,,
,,,,,,,,beach,1.7294,5,0,5,0,1,614009d626146bb34ae7a1cf,614817ae82c5770ec9a562c6,2021-09-19_22h12.19.063,Colour_Association_Experimentv1,2020.2.10,Win32,60,614813970c3839c5bfc24e99,,,,,,,,,,,,,,,,
,,,,,,,,sunscreen,4.0318,6,0,6,0,1,614009d626146bb34ae7a1cf,614817ae82c5770ec9a562c6,2021-09-19_22h12.19.063,Colour_Association_Experimentv1,2020.2.10,Win32,60,614813970c3839c5bfc24e99,,,,,,,,,,,,,,,,
,,,,,,,,lemonade,2.7809,7,0,7,0,1,614009d626146bb34ae7a1cf,614817ae82c5770ec9a562c6,2021-09-19_22h12.19.063,Colour_Association_Experimentv1,2020.2.10,Win32,60,614813970c3839c5bfc24e99,,,,,,,,,,,,,,,,
,,,,,,,,lemons,9.2452,8,0,8,0,1,614009d626146bb34ae7a1cf,614817ae82c5770ec9a562c6,2021-09-19_22h12.19.063,Colour_Association_Experimentv1,2020.2.10,Win32,60,614813970c3839c5bfc24e99,,,,,,,,,,,,,,,,
,,,,,,,,light,4.1972,9,0,9,0,1,614009d626146bb34ae7a1cf,614817ae82c5770ec9a562c6,2021-09-19_22h12.19.063,Colour_Association_Experimentv1,2020.2.10,Win32,60,614813970c3839c5bfc24e99,,,,,,,,,,,,,,,,
,,,,,,,,banana,5.679,10,0,10,0,1,614009d626146bb34ae7a1cf,614817ae82c5770ec9a562c6,2021-09-19_22h12.19.063,Colour_Association_Experimentv1,2020.2.10,Win32,60,614813970c3839c5bfc24e99,,,,,,,,,,,,,,,,
,,,,,,,,,4.4795,11,0,11,0,1,614009d626146bb34ae7a1cf,614817ae82c5770ec9a562c6,2021-09-19_22h12.19.063,Colour_Association_Experimentv1,2020.2.10,Win32,60,614813970c3839c5bfc24e99,,,,,,,,,,,,,,,,
,,,,,,,, leaves,4.6086,,,,,,614009d626146bb34ae7a1cf,614817ae82c5770ec9a562c6,2021-09-19_22h12.19.063,Colour_Association_Experimentv1,2020.2.10,Win32,60,614813970c3839c5bfc24e99,space,0.2362,4,PF,0,0,0,0,1,,,,,,,
,,,,,,,,trees,1.5463,,,,,,614009d626146bb34ae7a1cf,614817ae82c5770ec9a562c6,2021-09-19_22h12.19.063,Colour_Association_Experimentv1,2020.2.10,Win32,60,614813970c3839c5bfc24e99,,,,,1,0,1,0,1,,,,,,,
,,,,,,,,forest,2.1646,,,,,,614009d626146bb34ae7a1cf,614817ae82c5770ec9a562c6,2021-09-19_22h12.19.063,Colour_Association_Experimentv1,2020.2.10,Win32,60,614813970c3839c5bfc24e99,,,,,2,0,2,0,1,,,,,,,
,,,,,,,,jungle,2.4478,,,,,,614009d626146bb34ae7a1cf,614817ae82c5770ec9a562c6,2021-09-19_22h12.19.063,Colour_Association_Experimentv1,2020.2.10,Win32,60,614813970c3839c5bfc24e99,,,,,3,0,3,0,1,,,,,,,
,,,,,,,,flowers,2.3817,,,,,,614009d626146bb34ae7a1cf,614817ae82c5770ec9a562c6,2021-09-19_22h12.19.063,Colour_Association_Experimentv1,2020.2.10,Win32,60,614813970c3839c5bfc24e99,,,,,4,0,4,0,1,,,,,,,
,,,,,,,,plants,5.9791,,,,,,614009d626146bb34ae7a1cf,614817ae82c5770ec9a562c6,2021-09-19_22h12.19.063,Colour_Association_Experimentv1,2020.2.10,Win32,60,614813970c3839c5bfc24e99,,,,,5,0,5,0,1,,,,,,,
,,,,,,,,ecosistems,2.8294,,,,,,614009d626146bb34ae7a1cf,614817ae82c5770ec9a562c6,2021-09-19_22h12.19.063,Colour_Association_Experimentv1,2020.2.10,Win32,60,614813970c3839c5bfc24e99,,,,,6,0,6,0,1,,,,,,,
,,,,,,,,photosynthesis,25.6105,,,,,,614009d626146bb34ae7a1cf,614817ae82c5770ec9a562c6,2021-09-19_22h12.19.063,Colour_Association_Experimentv1,2020.2.10,Win32,60,614813970c3839c5bfc24e99,,,,,7,0,7,0,1,,,,,,,
,,,,,,,,cucumbers,7.2799,,,,,,614009d626146bb34ae7a1cf,614817ae82c5770ec9a562c6,2021-09-19_22h12.19.063,Colour_Association_Experimentv1,2020.2.10,Win32,60,614813970c3839c5bfc24e99,,,,,8,0,8,0,1,,,,,,,
,,,,,,,,frech,1.9625,,,,,,614009d626146bb34ae7a1cf,614817ae82c5770ec9a562c6,2021-09-19_22h12.19.063,Colour_Association_Experimentv1,2020.2.10,Win32,60,614813970c3839c5bfc24e99,,,,,9,0,9,0,1,,,,,,,
,,,,,,,,fresh,1.9331,,,,,,614009d626146bb34ae7a1cf,614817ae82c5770ec9a562c6,2021-09-19_22h12.19.063,Colour_Association_Experimentv1,2020.2.10,Win32,60,614813970c3839c5bfc24e99,,,,,10,0,10,0,1,,,,,,,
,,,,,,,,mint,9.8127,,,,,,614009d626146bb34ae7a1cf,614817ae82c5770ec9a562c6,2021-09-19_22h12.19.063,Colour_Association_Experimentv1,2020.2.10,Win32,60,614813970c3839c5bfc24e99,,,,,11,0,11,0,1,,,,,,,
,,,,,,,,gum,4.9597,,,,,,614009d626146bb34ae7a1cf,614817ae82c5770ec9a562c6,2021-09-19_22h12.19.063,Colour_Association_Experimentv1,2020.2.10,Win32,60,614813970c3839c5bfc24e99,,,,,12,0,12,0,1,,,,,,,
,,,,,,,,toothpaste,4.6794,,,,,,614009d626146bb34ae7a1cf,614817ae82c5770ec9a562c6,2021-09-19_22h12.19.063,Colour_Association_Experimentv1,2020.2.10,Win32,60,614813970c3839c5bfc24e99,,,,,13,0,13,0,1,,,,,,,
,,,,,,,,calm,8.9614,,,,,,614009d626146bb34ae7a1cf,614817ae82c5770ec9a562c6,2021-09-19_22h12.19.063,Colour_Association_Experimentv1,2020.2.10,Win32,60,614813970c3839c5bfc24e99,,,,,14,0,14,0,1,,,,,,,
,,,,,,,,,9.0789,,,,,,614009d626146bb34ae7a1cf,614817ae82c5770ec9a562c6,2021-09-19_22h12.19.063,Colour_Association_Experimentv1,2020.2.10,Win32,60,614813970c3839c5bfc24e99,,,,,15,0,15,0,1,,,,,,,
,,,,,,,,,,,,,,,614009d626146bb34ae7a1cf,614817ae82c5770ec9a562c6,2021-09-19_22h12.19.063,Colour_Association_Experimentv1,2020.2.10,Win32,60,614813970c3839c5bfc24e99,,,4,PF,,,,,,space,0.503,0,0,0,3,1
,,,,,,,, neon,7.5264,,,,,,614009d626146bb34ae7a1cf,614817ae82c5770ec9a562c6,2021-09-19_22h12.19.063,Colour_Association_Experimentv1,2020.2.10,Win32,60,614813970c3839c5bfc24e99,,,3,FF,0,0,0,0,1,,,,,,,
,,,,,,,,neon party,4.6805,,,,,,614009d626146bb34ae7a1cf,614817ae82c5770ec9a562c6,2021-09-19_22h12.19.063,Colour_Association_Experimentv1,2020.2.10,Win32,60,614813970c3839c5bfc24e99,,,,,1,0,1,0,1,,,,,,,
,,,,,,,,make up,4.3793,,,,,,614009d626146bb34ae7a1cf,614817ae82c5770ec9a562c6,2021-09-19_22h12.19.063,Colour_Association_Experimentv1,2020.2.10,Win32,60,614813970c3839c5bfc24e99,,,,,2,0,2,0,1,,,,,,,
,,,,,,,,noise ,2.8787,,,,,,614009d626146bb34ae7a1cf,614817ae82c5770ec9a562c6,2021-09-19_22h12.19.063,Colour_Association_Experimentv1,2020.2.10,Win32,60,614813970c3839c5bfc24e99,,,,,3,0,3,0,1,,,,,,,
,,,,,,,,drinks,7.5977,,,,,,614009d626146bb34ae7a1cf,614817ae82c5770ec9a562c6,2021-09-19_22h12.19.063,Colour_Association_Experimentv1,2020.2.10,Win32,60,614813970c3839c5bfc24e99,,,,,4,0,4,0,1,,,,,,,
,,,,,,,,poisson,5.362,,,,,,614009d626146bb34ae7a1cf,614817ae82c5770ec9a562c6,2021-09-19_22h12.19.063,Colour_Association_Experimentv1,2020.2.10,Win32,60,614813970c3839c5bfc24e99,,,,,5,0,5,0,1,,,,,,,
,,,,,,,,,4.1792,,,,,,614009d626146bb34ae7a1cf,614817ae82c5770ec9a562c6,2021-09-19_22h12.19.063,Colour_Association_Experimentv1,2020.2.10,Win32,60,614813970c3839c5bfc24e99,,,,,6,0,6,0,1,,,,,,,
,,,,,,,,,,,,,,,614009d626146bb34ae7a1cf,614817ae82c5770ec9a562c6,2021-09-19_22h12.19.063,Colour_Association_Experimentv1,2020.2.10,Win32,60,614813970c3839c5bfc24e99,,,3,FF,,,,,,space,2.525,0,1,1,2,1
,,,,,,,, polite,24.3706,,,,,,614009d626146bb34ae7a1cf,614817ae82c5770ec9a562c6,2021-09-19_22h12.19.063,Colour_Association_Experimentv1,2020.2.10,Win32,60,614813970c3839c5bfc24e99,,,6,PF,0,0,0,0,1,,,,,,,
,,,,,,,,smart,8.1282,,,,,,614009d626146bb34ae7a1cf,614817ae82c5770ec9a562c6,2021-09-19_22h12.19.063,Colour_Association_Experimentv1,2020.2.10,Win32,60,614813970c3839c5bfc24e99,,,,,1,0,1,0,1,,,,,,,
,,,,,,,,information,3.2129,,,,,,614009d626146bb34ae7a1cf,614817ae82c5770ec9a562c6,2021-09-19_22h12.19.063,Colour_Association_Experimentv1,2020.2.10,Win32,60,614813970c3839c5bfc24e99,,,,,2,0,2,0,1,,,,,,,
,,,,,,,,technology,2.9649,,,,,,614009d626146bb34ae7a1cf,614817ae82c5770ec9a562c6,2021-09-19_22h12.19.063,Colour_Association_Experimentv1,2020.2.10,Win32,60,614813970c3839c5bfc24e99,,,,,3,0,3,0,1,,,,,,,
,,,,,,,,eengineer,3.0797,,,,,,614009d626146bb34ae7a1cf,614817ae82c5770ec9a562c6,2021-09-19_22h12.19.063,Colour_Association_Experimentv1,2020.2.10,Win32,60,614813970c3839c5bfc24e99,,,,,4,0,4,0,1,,,,,,,
,,,,,,,,water,7.1143,,,,,,614009d626146bb34ae7a1cf,614817ae82c5770ec9a562c6,2021-09-19_22h12.19.063,Colour_Association_Experimentv1,2020.2.10,Win32,60,614813970c3839c5bfc24e99,,,,,5,0,5,0,1,,,,,,,
,,,,,,,,ocean,5.8116,,,,,,614009d626146bb34ae7a1cf,614817ae82c5770ec9a562c6,2021-09-19_22h12.19.063,Colour_Association_Experimentv1,2020.2.10,Win32,60,614813970c3839c5bfc24e99,,,,,6,0,6,0,1,,,,,,,
,,,,,,,,sea animals,6.2626,,,,,,614009d626146bb34ae7a1cf,614817ae82c5770ec9a562c6,2021-09-19_22h12.19.063,Colour_Association_Experimentv1,2020.2.10,Win32,60,614813970c3839c5bfc24e99,,,,,7,0,7,0,1,,,,,,,
,,,,,,,,waves,1.7629,,,,,,614009d626146bb34ae7a1cf,614817ae82c5770ec9a562c6,2021-09-19_22h12.19.063,Colour_Association_Experimentv1,2020.2.10,Win32,60,614813970c3839c5bfc24e99,,,,,8,0,8,0,1,,,,,,,
,,,,,,,,cold,1.4983,,,,,,614009d626146bb34ae7a1cf,614817ae82c5770ec9a562c6,2021-09-19_22h12.19.063,Colour_Association_Experimentv1,2020.2.10,Win32,60,614813970c3839c5bfc24e99,,,,,9,0,9,0,1,,,,,,,
,,,,,,,,rain,5.5923,,,,,,614009d626146bb34ae7a1cf,614817ae82c5770ec9a562c6,2021-09-19_22h12.19.063,Colour_Association_Experimentv1,2020.2.10,Win32,60,614813970c3839c5bfc24e99,,,,,10,0,10,0,1,,,,,,,
,,,,,,,,blueberries,4.7629,,,,,,614009d626146bb34ae7a1cf,614817ae82c5770ec9a562c6,2021-09-19_22h12.19.063,Colour_Association_Experimentv1,2020.2.10,Win32,60,614813970c3839c5bfc24e99,,,,,11,0,11,0,1,,,,,,,
,,,,,,,,sadness,5.3956,,,,,,614009d626146bb34ae7a1cf,614817ae82c5770ec9a562c6,2021-09-19_22h12.19.063,Colour_Association_Experimentv1,2020.2.10,Win32,60,614813970c3839c5bfc24e99,,,,,12,0,12,0,1,,,,,,,
,,,,,,,,lonelyness,8.4289,,,,,,614009d626146bb34ae7a1cf,614817ae82c5770ec9a562c6,2021-09-19_22h12.19.063,Colour_Association_Experimentv1,2020.2.10,Win32,60,614813970c3839c5bfc24e99,,,,,13,0,13,0,1,,,,,,,
,,,,,,,,,2.9792,,,,,,614009d626146bb34ae7a1cf,614817ae82c5770ec9a562c6,2021-09-19_22h12.19.063,Colour_Association_Experimentv1,2020.2.10,Win32,60,614813970c3839c5bfc24e99,,,,,14,0,14,0,1,,,,,,,
,,,,,,,,,,,,,,,614009d626146bb34ae7a1cf,614817ae82c5770ec9a562c6,2021-09-19_22h12.19.063,Colour_Association_Experimentv1,2020.2.10,Win32,60,614813970c3839c5bfc24e99,,,6,PF,,,,,,space,1.3315,0,2,2,5,1
,,,,,,,, blood,6.4091,,,,,,614009d626146bb34ae7a1cf,614817ae82c5770ec9a562c6,2021-09-19_22h12.19.063,Colour_Association_Experimentv1,2020.2.10,Win32,60,614813970c3839c5bfc24e99,,,1,FF,0,0,0,0,1,,,,,,,
,,,,,,,,power,2.8443,,,,,,614009d626146bb34ae7a1cf,614817ae82c5770ec9a562c6,2021-09-19_22h12.19.063,Colour_Association_Experimentv1,2020.2.10,Win32,60,614813970c3839c5bfc24e99,,,,,1,0,1,0,1,,,,,,,
,,,,,,,,wound,2.58,,,,,,614009d626146bb34ae7a1cf,614817ae82c5770ec9a562c6,2021-09-19_22h12.19.063,Colour_Association_Experimentv1,2020.2.10,Win32,60,614813970c3839c5bfc24e99,,,,,2,0,2,0,1,,,,,,,
,,,,,,,,erythrocytes,26.1096,,,,,,614009d626146bb34ae7a1cf,614817ae82c5770ec9a562c6,2021-09-19_22h12.19.063,Colour_Association_Experimentv1,2020.2.10,Win32,60,614813970c3839c5bfc24e99,,,,,3,0,3,0,1,,,,,,,
,,,,,,,,killer,3.4957,,,,,,614009d626146bb34ae7a1cf,614817ae82c5770ec9a562c6,2021-09-19_22h12.19.063,Colour_Association_Experimentv1,2020.2.10,Win32,60,614813970c3839c5bfc24e99,,,,,4,0,4,0,1,,,,,,,
,,,,,,,,ketchup,5.0313,,,,,,614009d626146bb34ae7a1cf,614817ae82c5770ec9a562c6,2021-09-19_22h12.19.063,Colour_Association_Experimentv1,2020.2.10,Win32,60,614813970c3839c5bfc24e99,,,,,5,0,5,0,1,,,,,,,
,,,,,,,,bondage,4.2793,,,,,,614009d626146bb34ae7a1cf,614817ae82c5770ec9a562c6,2021-09-19_22h12.19.063,Colour_Association_Experimentv1,2020.2.10,Win32,60,614813970c3839c5bfc24e99,,,,,6,0,6,0,1,,,,,,,
,,,,,,,,passion,1.9302,,,,,,614009d626146bb34ae7a1cf,614817ae82c5770ec9a562c6,2021-09-19_22h12.19.063,Colour_Association_Experimentv1,2020.2.10,Win32,60,614813970c3839c5bfc24e99,,,,,7,0,7,0,1,,,,,,,
,,,,,,,,romance,2.4818,,,,,,614009d626146bb34ae7a1cf,614817ae82c5770ec9a562c6,2021-09-19_22h12.19.063,Colour_Association_Experimentv1,2020.2.10,Win32,60,614813970c3839c5bfc24e99,,,,,8,0,8,0,1,,,,,,,
,,,,,,,,red roses,3.7649,,,,,,614009d626146bb34ae7a1cf,614817ae82c5770ec9a562c6,2021-09-19_22h12.19.063,Colour_Association_Experimentv1,2020.2.10,Win32,60,614813970c3839c5bfc24e99,,,,,9,0,9,0,1,,,,,,,
,,,,,,,,petals,1.5635,,,,,,614009d626146bb34ae7a1cf,614817ae82c5770ec9a562c6,2021-09-19_22h12.19.063,Colour_Association_Experimentv1,2020.2.10,Win32,60,614813970c3839c5bfc24e99,,,,,10,0,10,0,1,,,,,,,
,,,,,,,,lipstick,11.563,,,,,,614009d626146bb34ae7a1cf,614817ae82c5770ec9a562c6,2021-09-19_22h12.19.063,Colour_Association_Experimentv1,2020.2.10,Win32,60,614813970c3839c5bfc24e99,,,,,11,0,11,0,1,,,,,,,
,,,,,,,,kisses,6.6126,,,,,,614009d626146bb34ae7a1cf,614817ae82c5770ec9a562c6,2021-09-19_22h12.19.063,Colour_Association_Experimentv1,2020.2.10,Win32,60,614813970c3839c5bfc24e99,,,,,12,0,12,0,1,,,,,,,
,,,,,,,,passion,1.5468,,,,,,614009d626146bb34ae7a1cf,614817ae82c5770ec9a562c6,2021-09-19_22h12.19.063,Colour_Association_Experimentv1,2020.2.10,Win32,60,614813970c3839c5bfc24e99,,,,,13,0,13,0,1,,,,,,,
,,,,,,,,period,6.9807,,,,,,614009d626146bb34ae7a1cf,614817ae82c5770ec9a562c6,2021-09-19_22h12.19.063,Colour_Association_Experimentv1,2020.2.10,Win32,60,614813970c3839c5bfc24e99,,,,,14,0,14,0,1,,,,,,,
,,,,,,,,hemorrhage,32.0909,,,,,,614009d626146bb34ae7a1cf,614817ae82c5770ec9a562c6,2021-09-19_22h12.19.063,Colour_Association_Experimentv1,2020.2.10,Win32,60,614813970c3839c5bfc24e99,,,,,15,0,15,0,1,,,,,,,
,,,,,,,,surgery,3.6128,,,,,,614009d626146bb34ae7a1cf,614817ae82c5770ec9a562c6,2021-09-19_22h12.19.063,Colour_Association_Experimentv1,2020.2.10,Win32,60,614813970c3839c5bfc24e99,,,,,16,0,16,0,1,,,,,,,
,,,,,,,,heart,5.7478,,,,,,614009d626146bb34ae7a1cf,614817ae82c5770ec9a562c6,2021-09-19_22h12.19.063,Colour_Association_Experimentv1,2020.2.10,Win32,60,614813970c3839c5bfc24e99,,,,,17,0,17,0,1,,,,,,,
,,,,,,,,arteries,16.9766,,,,,,614009d626146bb34ae7a1cf,614817ae82c5770ec9a562c6,2021-09-19_22h12.19.063,Colour_Association_Experimentv1,2020.2.10,Win32,60,614813970c3839c5bfc24e99,,,,,18,0,18,0,1,,,,,,,
,,,,,,,,pepperoni,6.4293,,,,,,614009d626146bb34ae7a1cf,614817ae82c5770ec9a562c6,2021-09-19_22h12.19.063,Colour_Association_Experimentv1,2020.2.10,Win32,60,614813970c3839c5bfc24e99,,,,,19,0,19,0,1,,,,,,,
,,,,,,,,stop sign,13.7774,,,,,,614009d626146bb34ae7a1cf,614817ae82c5770ec9a562c6,2021-09-19_22h12.19.063,Colour_Association_Experimentv1,2020.2.10,Win32,60,614813970c3839c5bfc24e99,,,,,20,0,20,0,1,,,,,,,
,,,,,,,,no,6.4783,,,,,,614009d626146bb34ae7a1cf,614817ae82c5770ec9a562c6,2021-09-19_22h12.19.063,Colour_Association_Experimentv1,2020.2.10,Win32,60,614813970c3839c5bfc24e99,,,,,21,0,21,0,1,,,,,,,
,,,,,,,,,1.9613,,,,,,614009d626146bb34ae7a1cf,614817ae82c5770ec9a562c6,2021-09-19_22h12.19.063,Colour_Association_Experimentv1,2020.2.10,Win32,60,614813970c3839c5bfc24e99,,,,,22,0,22,0,1,,,,,,,
,,,,,,,,,,,,,,,614009d626146bb34ae7a1cf,614817ae82c5770ec9a562c6,2021-09-19_22h12.19.063,Colour_Association_Experimentv1,2020.2.10,Win32,60,614813970c3839c5bfc24e99,,,1,FF,,,,,,space,0.4348,0,3,3,0,1
,,,,,,,, oranges,3.3767,,,,,,614009d626146bb34ae7a1cf,614817ae82c5770ec9a562c6,2021-09-19_22h12.19.063,Colour_Association_Experimentv1,2020.2.10,Win32,60,614813970c3839c5bfc24e99,,,2,PF,0,0,0,0,1,,,,,,,
,,,,,,,,fuit,1.6306,,,,,,614009d626146bb34ae7a1cf,614817ae82c5770ec9a562c6,2021-09-19_22h12.19.063,Colour_Association_Experimentv1,2020.2.10,Win32,60,614813970c3839c5bfc24e99,,,,,1,0,1,0,1,,,,,,,
,,,,,,,,spring,4.537,,,,,,614009d626146bb34ae7a1cf,614817ae82c5770ec9a562c6,2021-09-19_22h12.19.063,Colour_Association_Experimentv1,2020.2.10,Win32,60,614813970c3839c5bfc24e99,,,,,2,0,2,0,1,,,,,,,
,,,,,,,,summer,1.1413,,,,,,614009d626146bb34ae7a1cf,614817ae82c5770ec9a562c6,2021-09-19_22h12.19.063,Colour_Association_Experimentv1,2020.2.10,Win32,60,614813970c3839c5bfc24e99,,,,,3,0,3,0,1,,,,,,,
,,,,,,,,warm days,6.2144,,,,,,614009d626146bb34ae7a1cf,614817ae82c5770ec9a562c6,2021-09-19_22h12.19.063,Colour_Association_Experimentv1,2020.2.10,Win32,60,614813970c3839c5bfc24e99,,,,,4,0,4,0,1,,,,,,,
,,,,,,,,orange juice,5.4292,,,,,,614009d626146bb34ae7a1cf,614817ae82c5770ec9a562c6,2021-09-19_22h12.19.063,Colour_Association_Experimentv1,2020.2.10,Win32,60,614813970c3839c5bfc24e99,,,,,5,0,5,0,1,,,,,,,
,,,,,,,,breakfast,3.481,,,,,,614009d626146bb34ae7a1cf,614817ae82c5770ec9a562c6,2021-09-19_22h12.19.063,Colour_Association_Experimentv1,2020.2.10,Win32,60,614813970c3839c5bfc24e99,,,,,6,0,6,0,1,,,,,,,
,,,,,,,,mimosas,2.9016,,,,,,614009d626146bb34ae7a1cf,614817ae82c5770ec9a562c6,2021-09-19_22h12.19.063,Colour_Association_Experimentv1,2020.2.10,Win32,60,614813970c3839c5bfc24e99,,,,,7,0,7,0,1,,,,,,,
,,,,,,,,sweet,5.7736,,,,,,614009d626146bb34ae7a1cf,614817ae82c5770ec9a562c6,2021-09-19_22h12.19.063,Colour_Association_Experimentv1,2020.2.10,Win32,60,614813970c3839c5bfc24e99,,,,,8,0,8,0,1,,,,,,,
,,,,,,,,welcoming,3.8013,,,,,,614009d626146bb34ae7a1cf,614817ae82c5770ec9a562c6,2021-09-19_22h12.19.063,Colour_Association_Experimentv1,2020.2.10,Win32,60,614813970c3839c5bfc24e99,,,,,9,0,9,0,1,,,,,,,
,,,,,,,,hungry,3.9082,,,,,,614009d626146bb34ae7a1cf,614817ae82c5770ec9a562c6,2021-09-19_22h12.19.063,Colour_Association_Experimentv1,2020.2.10,Win32,60,614813970c3839c5bfc24e99,,,,,10,0,10,0,1,,,,,,,
,,,,,,,,happy,7.2842,,,,,,614009d626146bb34ae7a1cf,614817ae82c5770ec9a562c6,2021-09-19_22h12.19.063,Colour_Association_Experimentv1,2020.2.10,Win32,60,614813970c3839c5bfc24e99,,,,,11,0,11,0,1,,,,,,,
,,,,,,,,good emotions,12.9725,,,,,,614009d626146bb34ae7a1cf,614817ae82c5770ec9a562c6,2021-09-19_22h12.19.063,Colour_Association_Experimentv1,2020.2.10,Win32,60,614813970c3839c5bfc24e99,,,,,12,0,12,0,1,,,,,,,
,,,,,,,,pumpkins,9.8948,,,,,,614009d626146bb34ae7a1cf,614817ae82c5770ec9a562c6,2021-09-19_22h12.19.063,Colour_Association_Experimentv1,2020.2.10,Win32,60,614813970c3839c5bfc24e99,,,,,13,0,13,0,1,,,,,,,
,,,,,,,,halloween,2.7311,,,,,,614009d626146bb34ae7a1cf,614817ae82c5770ec9a562c6,2021-09-19_22h12.19.063,Colour_Association_Experimentv1,2020.2.10,Win32,60,614813970c3839c5bfc24e99,,,,,14,0,14,0,1,,,,,,,
,,,,,,,,candles,4.8313,,,,,,614009d626146bb34ae7a1cf,614817ae82c5770ec9a562c6,2021-09-19_22h12.19.063,Colour_Association_Experimentv1,2020.2.10,Win32,60,614813970c3839c5bfc24e99,,,,,15,0,15,0,1,,,,,,,
,,,,,,,,carrots,7.0288,,,,,,614009d626146bb34ae7a1cf,614817ae82c5770ec9a562c6,2021-09-19_22h12.19.063,Colour_Association_Experimentv1,2020.2.10,Win32,60,614813970c3839c5bfc24e99,,,,,16,0,16,0,1,,,,,,,
,,,,,,,,,12.5333,,,,,,614009d626146bb34ae7a1cf,614817ae82c5770ec9a562c6,2021-09-19_22h12.19.063,Colour_Association_Experimentv1,2020.2.10,Win32,60,614813970c3839c5bfc24e99,,,,,17,0,17,0,1,,,,,,,
,,,,,,,,,,,,,,,614009d626146bb34ae7a1cf,614817ae82c5770ec9a562c6,2021-09-19_22h12.19.063,Colour_Association_Experimentv1,2020.2.10,Win32,60,614813970c3839c5bfc24e99,,,2,PF,,,,,,space,1.27,0,4,4,1,1
,,,,,,,, flowers,6.8598,,,,,,614009d626146bb34ae7a1cf,614817ae82c5770ec9a562c6,2021-09-19_22h12.19.063,Colour_Association_Experimentv1,2020.2.10,Win32,60,614813970c3839c5bfc24e99,,,9,FF,0,0,0,0,1,,,,,,,
,,,,,,,,libra sign,3.8961,,,,,,614009d626146bb34ae7a1cf,614817ae82c5770ec9a562c6,2021-09-19_22h12.19.063,Colour_Association_Experimentv1,2020.2.10,Win32,60,614813970c3839c5bfc24e99,,,,,1,0,1,0,1,,,,,,,
,,,,,,,,diva attitude,7.0797,,,,,,614009d626146bb34ae7a1cf,614817ae82c5770ec9a562c6,2021-09-19_22h12.19.063,Colour_Association_Experimentv1,2020.2.10,Win32,60,614813970c3839c5bfc24e99,,,,,2,0,2,0,1,,,,,,,
,,,,,,,,sharpay evans,5.5787,,,,,,614009d626146bb34ae7a1cf,614817ae82c5770ec9a562c6,2021-09-19_22h12.19.063,Colour_Association_Experimentv1,2020.2.10,Win32,60,614813970c3839c5bfc24e99,,,,,3,0,3,0,1,,,,,,,
,,,,,,,,mean girls,3.7952,,,,,,614009d626146bb34ae7a1cf,614817ae82c5770ec9a562c6,2021-09-19_22h12.19.063,Colour_Association_Experimentv1,2020.2.10,Win32,60,614813970c3839c5bfc24e99,,,,,4,0,4,0,1,,,,,,,
,,,,,,,,scream queens,10.479,,,,,,614009d626146bb34ae7a1cf,614817ae82c5770ec9a562c6,2021-09-19_22h12.19.063,Colour_Association_Experimentv1,2020.2.10,Win32,60,614813970c3839c5bfc24e99,,,,,5,0,5,0,1,,,,,,,
,,,,,,,,legally blonde,5.8124,,,,,,614009d626146bb34ae7a1cf,614817ae82c5770ec9a562c6,2021-09-19_22h12.19.063,Colour_Association_Experimentv1,2020.2.10,Win32,60,614813970c3839c5bfc24e99,,,,,6,0,6,0,1,,,,,,,
,,,,,,,,popularity,8.3786,,,,,,614009d626146bb34ae7a1cf,614817ae82c5770ec9a562c6,2021-09-19_22h12.19.063,Colour_Association_Experimentv1,2020.2.10,Win32,60,614813970c3839c5bfc24e99,,,,,7,0,7,0,1,,,,,,,
,,,,,,,,charming,1.8295,,,,,,614009d626146bb34ae7a1cf,614817ae82c5770ec9a562c6,2021-09-19_22h12.19.063,Colour_Association_Experimentv1,2020.2.10,Win32,60,614813970c3839c5bfc24e99,,,,,8,0,8,0,1,,,,,,,
,,,,,,,,pretty,4.0319,,,,,,614009d626146bb34ae7a1cf,614817ae82c5770ec9a562c6,2021-09-19_22h12.19.063,Colour_Association_Experimentv1,2020.2.10,Win32,60,614813970c3839c5bfc24e99,,,,,9,0,9,0,1,,,,,,,
,,,,,,,,gorgeous,6.1178,,,,,,614009d626146bb34ae7a1cf,614817ae82c5770ec9a562c6,2021-09-19_22h12.19.063,Colour_Association_Experimentv1,2020.2.10,Win32,60,614813970c3839c5bfc24e99,,,,,10,0,10,0,1,,,,,,,
,,,,,,,,center of attention,10.1559,,,,,,614009d626146bb34ae7a1cf,614817ae82c5770ec9a562c6,2021-09-19_22h12.19.063,Colour_Association_Experimentv1,2020.2.10,Win32,60,614813970c3839c5bfc24e99,,,,,11,0,11,0,1,,,,,,,
,,,,,,,,femenine,6.6453,,,,,,614009d626146bb34ae7a1cf,614817ae82c5770ec9a562c6,2021-09-19_22h12.19.063,Colour_Association_Experimentv1,2020.2.10,Win32,60,614813970c3839c5bfc24e99,,,,,12,0,12,0,1,,,,,,,
,,,,,,,,delicate,3.1303,,,,,,614009d626146bb34ae7a1cf,614817ae82c5770ec9a562c6,2021-09-19_22h12.19.063,Colour_Association_Experimentv1,2020.2.10,Win32,60,614813970c3839c5bfc24e99,,,,,13,0,13,0,1,,,,,,,
,,,,,,,,,19.9782,,,,,,614009d626146bb34ae7a1cf,614817ae82c5770ec9a562c6,2021-09-19_22h12.19.063,Colour_Association_Experimentv1,2020.2.10,Win32,60,614813970c3839c5bfc24e99,,,,,14,0,14,0,1,,,,,,,
,,,,,,,,,,,,,,,614009d626146bb34ae7a1cf,614817ae82c5770ec9a562c6,2021-09-19_22h12.19.063,Colour_Association_Experimentv1,2020.2.10,Win32,60,614813970c3839c5bfc24e99,,,9,FF,,,,,,space,1.2496,0,5,5,8,1
,,,,,,,, bright,12.8257,,,,,,614009d626146bb34ae7a1cf,614817ae82c5770ec9a562c6,2021-09-19_22h12.19.063,Colour_Association_Experimentv1,2020.2.10,Win32,60,614813970c3839c5bfc24e99,,,5,FF,0,0,0,0,1,,,,,,,
,,,,,,,,exciting,5.2952,,,,,,614009d626146bb34ae7a1cf,614817ae82c5770ec9a562c6,2021-09-19_22h12.19.063,Colour_Association_Experimentv1,2020.2.10,Win32,60,614813970c3839c5bfc24e99,,,,,1,0,1,0,1,,,,,,,
,,,,,,,,214 fashion teal,20.4432,,,,,,614009d626146bb34ae7a1cf,614817ae82c5770ec9a562c6,2021-09-19_22h12.19.063,Colour_Association_Experimentv1,2020.2.10,Win32,60,614813970c3839c5bfc24e99,,,,,2,0,2,0,1,,,,,,,
,,,,,,,,,,,,,,,614009d626146bb34ae7a1cf,614817ae82c5770ec9a562c6,2021-09-19_22h12.19.063,Colour_Association_Experimentv1,2020.2.10,Win32,60,614813970c3839c5bfc24e99,,,5,FF,,,,,,space,3.234,0,6,6,4,1
,,,,,,,, king,4.3594,,,,,,614009d626146bb34ae7a1cf,614817ae82c5770ec9a562c6,2021-09-19_22h12.19.063,Colour_Association_Experimentv1,2020.2.10,Win32,60,614813970c3839c5bfc24e99,,,7,FF,0,0,0,0,1,,,,,,,
,,,,,,,,royalty,2.7303,,,,,,614009d626146bb34ae7a1cf,614817ae82c5770ec9a562c6,2021-09-19_22h12.19.063,Colour_Association_Experimentv1,2020.2.10,Win32,60,614813970c3839c5bfc24e99,,,,,1,0,1,0,1,,,,,,,
,,,,,,,,united kingdom,11.3299,,,,,,614009d626146bb34ae7a1cf,614817ae82c5770ec9a562c6,2021-09-19_22h12.19.063,Colour_Association_Experimentv1,2020.2.10,Win32,60,614813970c3839c5bfc24e99,,,,,2,0,2,0,1,,,,,,,
,,,,,,,,whealty,2.3296,,,,,,614009d626146bb34ae7a1cf,614817ae82c5770ec9a562c6,2021-09-19_22h12.19.063,Colour_Association_Experimentv1,2020.2.10,Win32,60,614813970c3839c5bfc24e99,,,,,3,0,3,0,1,,,,,,,
,,,,,,,,power,2.9483,,,,,,614009d626146bb34ae7a1cf,614817ae82c5770ec9a562c6,2021-09-19_22h12.19.063,Colour_Association_Experimentv1,2020.2.10,Win32,60,614813970c3839c5bfc24e99,,,,,4,0,4,0,1,,,,,,,
,,,,,,,,intelligence,3.2649,,,,,,614009d626146bb34ae7a1cf,614817ae82c5770ec9a562c6,2021-09-19_22h12.19.063,Colour_Association_Experimentv1,2020.2.10,Win32,60,614813970c3839c5bfc24e99,,,,,5,0,5,0,1,,,,,,,
,,,,,,,,pride,15.344,,,,,,614009d626146bb34ae7a1cf,614817ae82c5770ec9a562c6,2021-09-19_22h12.19.063,Colour_Association_Experimentv1,2020.2.10,Win32,60,614813970c3839c5bfc24e99,,,,,6,0,6,0,1,,,,,,,
,,,,,,,,deep,21.9419,,,,,,614009d626146bb34ae7a1cf,614817ae82c5770ec9a562c6,2021-09-19_22h12.19.063,Colour_Association_Experimentv1,2020.2.10,Win32,60,614813970c3839c5bfc24e99,,,,,7,0,7,0,1,,,,,,,
,,,,,,,,megalodon,9.3454,,,,,,614009d626146bb34ae7a1cf,614817ae82c5770ec9a562c6,2021-09-19_22h12.19.063,Colour_Association_Experimentv1,2020.2.10,Win32,60,614813970c3839c5bfc24e99,,,,,8,0,8,0,1,,,,,,,
,,,,,,,,elegance,15.5104,,,,,,614009d626146bb34ae7a1cf,614817ae82c5770ec9a562c6,2021-09-19_22h12.19.063,Colour_Association_Experimentv1,2020.2.10,Win32,60,614813970c3839c5bfc24e99,,,,,9,0,9,0,1,,,,,,,
,,,,,,,,vibrant,7.4286,,,,,,614009d626146bb34ae7a1cf,614817ae82c5770ec9a562c6,2021-09-19_22h12.19.063,Colour_Association_Experimentv1,2020.2.10,Win32,60,614813970c3839c5bfc24e99,,,,,10,0,10,0,1,,,,,,,
,,,,,,,,pacific,3.4464,,,,,,614009d626146bb34ae7a1cf,614817ae82c5770ec9a562c6,2021-09-19_22h12.19.063,Colour_Association_Experimentv1,2020.2.10,Win32,60,614813970c3839c5bfc24e99,,,,,11,0,11,0,1,,,,,,,
,,,,,,,,imposing,17.1763,,,,,,614009d626146bb34ae7a1cf,614817ae82c5770ec9a562c6,2021-09-19_22h12.19.063,Colour_Association_Experimentv1,2020.2.10,Win32,60,614813970c3839c5bfc24e99,,,,,12,0,12,0,1,,,,,,,
,,,,,,,,leader,2.2482,,,,,,614009d626146bb34ae7a1cf,614817ae82c5770ec9a562c6,2021-09-19_22h12.19.063,Colour_Association_Experimentv1,2020.2.10,Win32,60,614813970c3839c5bfc24e99,,,,,13,0,13,0,1,,,,,,,
,,,,,,,,role model,5.3976,,,,,,614009d626146bb34ae7a1cf,614817ae82c5770ec9a562c6,2021-09-19_22h12.19.063,Colour_Association_Experimentv1,2020.2.10,Win32,60,614813970c3839c5bfc24e99,,,,,14,0,14,0,1,,,,,,,
,,,,,,,,boss,2.7302,,,,,,614009d626146bb34ae7a1cf,614817ae82c5770ec9a562c6,2021-09-19_22h12.19.063,Colour_Association_Experimentv1,2020.2.10,Win32,60,614813970c3839c5bfc24e99,,,,,15,0,15,0,1,,,,,,,
,,,,,,,,,2.3961,,,,,,614009d626146bb34ae7a1cf,614817ae82c5770ec9a562c6,2021-09-19_22h12.19.063,Colour_Association_Experimentv1,2020.2.10,Win32,60,614813970c3839c5bfc24e99,,,,,16,0,16,0,1,,,,,,,
,,,,,,,,,,,,,,,614009d626146bb34ae7a1cf,614817ae82c5770ec9a562c6,2021-09-19_22h12.19.063,Colour_Association_Experimentv1,2020.2.10,Win32,60,614813970c3839c5bfc24e99,,,7,FF,,,,,,space,0.2708,0,7,7,6,1
,,,,,,,, happiness,11.2917,,,,,,614009d626146bb34ae7a1cf,614817ae82c5770ec9a562c6,2021-09-19_22h12.19.063,Colour_Association_Experimentv1,2020.2.10,Win32,60,614813970c3839c5bfc24e99,,,8,PF,0,0,0,0,1,,,,,,,
,,,,,,,,smiles,1.7794,,,,,,614009d626146bb34ae7a1cf,614817ae82c5770ec9a562c6,2021-09-19_22h12.19.063,Colour_Association_Experimentv1,2020.2.10,Win32,60,614813970c3839c5bfc24e99,,,,,1,0,1,0,1,,,,,,,
,,,,,,,,gender neutral,9.3805,,,,,,614009d626146bb34ae7a1cf,614817ae82c5770ec9a562c6,2021-09-19_22h12.19.063,Colour_Association_Experimentv1,2020.2.10,Win32,60,614813970c3839c5bfc24e99,,,,,2,0,2,0,1,,,,,,,
,,,,,,,,loved by everyone,8.1498,,,,,,614009d626146bb34ae7a1cf,614817ae82c5770ec9a562c6,2021-09-19_22h12.19.063,Colour_Association_Experimentv1,2020.2.10,Win32,60,614813970c3839c5bfc24e99,,,,,3,0,3,0,1,,,,,,,
,,,,,,,,unproblematic,9.9568,,,,,,614009d626146bb34ae7a1cf,614817ae82c5770ec9a562c6,2021-09-19_22h12.19.063,Colour_Association_Experimentv1,2020.2.10,Win32,60,614813970c3839c5bfc24e99,,,,,4,0,4,0,1,,,,,,,
,,,,,,,,elegant,5.8337,,,,,,614009d626146bb34ae7a1cf,614817ae82c5770ec9a562c6,2021-09-19_22h12.19.063,Colour_Association_Experimentv1,2020.2.10,Win32,60,614813970c3839c5bfc24e99,,,,,5,0,5,0,1,,,,,,,
,,,,,,,,eggplant,14.1728,,,,,,614009d626146bb34ae7a1cf,614817ae82c5770ec9a562c6,2021-09-19_22h12.19.063,Colour_Association_Experimentv1,2020.2.10,Win32,60,614813970c3839c5bfc24e99,,,,,6,0,6,0,1,,,,,,,
,,,,,,,,berries,4.013,,,,,,614009d626146bb34ae7a1cf,614817ae82c5770ec9a562c6,2021-09-19_22h12.19.063,Colour_Association_Experimentv1,2020.2.10,Win32,60,614813970c3839c5bfc24e99,,,,,7,0,7,0,1,,,,,,,
,,,,,,,,,9.2119,,,,,,614009d626146bb34ae7a1cf,614817ae82c5770ec9a562c6,2021-09-19_22h12.19.063,Colour_Association_Experimentv1,2020.2.10,Win32,60,614813970c3839c5bfc24e99,,,,,8,0,8,0,1,,,,,,,
,,,,,,,,,,,,,,,614009d626146bb34ae7a1cf,614817ae82c5770ec9a562c6,2021-09-19_22h12.19.063,Colour_Association_Experimentv1,2020.2.10,Win32,60,614813970c3839c5bfc24e99,,,8,PF,,,,,,,,0,8,8,7,1
