key_resp.keys,key_resp.rt,key_resp_2.keys,key_resp_2.rt,key_resp_3.keys,key_resp_3.rt,key_resp_4.keys,key_resp_4.rt,inputText,rt,pracassoc.thisRepN,pracassoc.thisTrialN,pracassoc.thisN,pracassoc.thisIndex,pracassoc.ran,participant,session,date,expName,psychopyVersion,OS,frameRate,study_id,key_resp_6.keys,key_resp_6.rt,Colour1,Ecc,assocresponse.thisRepN,assocresponse.thisTrialN,assocresponse.thisN,assocresponse.thisIndex,assocresponse.ran,key_resp_5.keys,key_resp_5.rt,trials.thisRepN,trials.thisTrialN,trials.thisN,trials.thisIndex,trials.ran
space,3.4622,space,89.858,space,17.7266,space,73.1342, ,16.8279,0,0,0,0,1,6144d595272a4e5174447ab5,614815122c2a08c24a3d4e01,2021-09-19_23h59.35.974,Colour_Association_Experimentv1,2020.2.10,Win32,60,614813970c3839c5bfc24e99,,,,,,,,,,,,,,,,
,,,,,,,,,1.8455,1,0,1,0,1,6144d595272a4e5174447ab5,614815122c2a08c24a3d4e01,2021-09-19_23h59.35.974,Colour_Association_Experimentv1,2020.2.10,Win32,60,614813970c3839c5bfc24e99,,,,,,,,,,,,,,,,
,,,,,,,,sun,3.8508,2,0,2,0,1,6144d595272a4e5174447ab5,614815122c2a08c24a3d4e01,2021-09-19_23h59.35.974,Colour_Association_Experimentv1,2020.2.10,Win32,60,614813970c3839c5bfc24e99,,,,,,,,,,,,,,,,
,,,,,,,,sun,12.1694,3,0,3,0,1,6144d595272a4e5174447ab5,614815122c2a08c24a3d4e01,2021-09-19_23h59.35.974,Colour_Association_Experimentv1,2020.2.10,Win32,60,614813970c3839c5bfc24e99,,,,,,,,,,,,,,,,
,,,,,,,,urine,89.4916,4,0,4,0,1,6144d595272a4e5174447ab5,614815122c2a08c24a3d4e01,2021-09-19_23h59.35.974,Colour_Association_Experimentv1,2020.2.10,Win32,60,614813970c3839c5bfc24e99,,,,,,,,,,,,,,,,
,,,,,,,, sun,28.6891,,,,,,6144d595272a4e5174447ab5,614815122c2a08c24a3d4e01,2021-09-19_23h59.35.974,Colour_Association_Experimentv1,2020.2.10,Win32,60,614813970c3839c5bfc24e99,space,2.5732,2,PF,0,0,0,0,1,,,,,,,
,,,,,,,,medal,66.8903,,,,,,6144d595272a4e5174447ab5,614815122c2a08c24a3d4e01,2021-09-19_23h59.35.974,Colour_Association_Experimentv1,2020.2.10,Win32,60,614813970c3839c5bfc24e99,,,,,1,0,1,0,1,,,,,,,
,,,,,,,,urine,22.9082,,,,,,6144d595272a4e5174447ab5,614815122c2a08c24a3d4e01,2021-09-19_23h59.35.974,Colour_Association_Experimentv1,2020.2.10,Win32,60,614813970c3839c5bfc24e99,,,,,2,0,2,0,1,,,,,,,
,,,,,,,,,,,,,,,6144d595272a4e5174447ab5,614815122c2a08c24a3d4e01,2021-09-19_23h59.35.974,Colour_Association_Experimentv1,2020.2.10,Win32,60,614813970c3839c5bfc24e99,,,2,PF,,,,,,space,2.7637,0,0,0,1,1
,,,,,,,, flower,22.7219,,,,,,6144d595272a4e5174447ab5,614815122c2a08c24a3d4e01,2021-09-19_23h59.35.974,Colour_Association_Experimentv1,2020.2.10,Win32,60,614813970c3839c5bfc24e99,,,9,FF,0,0,0,0,1,,,,,,,
,,,,,,,,gum,47.3351,,,,,,6144d595272a4e5174447ab5,614815122c2a08c24a3d4e01,2021-09-19_23h59.35.974,Colour_Association_Experimentv1,2020.2.10,Win32,60,614813970c3839c5bfc24e99,,,,,1,0,1,0,1,,,,,,,
,,,,,,,,pink ball,13.6535,,,,,,6144d595272a4e5174447ab5,614815122c2a08c24a3d4e01,2021-09-19_23h59.35.974,Colour_Association_Experimentv1,2020.2.10,Win32,60,614813970c3839c5bfc24e99,,,,,2,0,2,0,1,,,,,,,
,,,,,,,,love,42.9002,,,,,,6144d595272a4e5174447ab5,614815122c2a08c24a3d4e01,2021-09-19_23h59.35.974,Colour_Association_Experimentv1,2020.2.10,Win32,60,614813970c3839c5bfc24e99,,,,,3,0,3,0,1,,,,,,,
,,,,,,,,,,,,,,,6144d595272a4e5174447ab5,614815122c2a08c24a3d4e01,2021-09-19_23h59.35.974,Colour_Association_Experimentv1,2020.2.10,Win32,60,614813970c3839c5bfc24e99,,,9,FF,,,,,,space,3.8528,0,1,1,8,1
,,,,,,,, pepperoni,11.2618,,,,,,6144d595272a4e5174447ab5,614815122c2a08c24a3d4e01,2021-09-19_23h59.35.974,Colour_Association_Experimentv1,2020.2.10,Win32,60,614813970c3839c5bfc24e99,,,1,FF,0,0,0,0,1,,,,,,,
,,,,,,,,fire,79.0841,,,,,,6144d595272a4e5174447ab5,614815122c2a08c24a3d4e01,2021-09-19_23h59.35.974,Colour_Association_Experimentv1,2020.2.10,Win32,60,614813970c3839c5bfc24e99,,,,,1,0,1,0,1,,,,,,,
,,,,,,,,crayon,42.917,,,,,,6144d595272a4e5174447ab5,614815122c2a08c24a3d4e01,2021-09-19_23h59.35.974,Colour_Association_Experimentv1,2020.2.10,Win32,60,614813970c3839c5bfc24e99,,,,,2,0,2,0,1,,,,,,,
,,,,,,,,,,,,,,,6144d595272a4e5174447ab5,614815122c2a08c24a3d4e01,2021-09-19_23h59.35.974,Colour_Association_Experimentv1,2020.2.10,Win32,60,614813970c3839c5bfc24e99,,,1,FF,,,,,,space,2.3129,0,2,2,0,1
,,,,,,,, grass,6.5142,,,,,,6144d595272a4e5174447ab5,614815122c2a08c24a3d4e01,2021-09-19_23h59.35.974,Colour_Association_Experimentv1,2020.2.10,Win32,60,614813970c3839c5bfc24e99,,,5,FF,0,0,0,0,1,,,,,,,
,,,,,,,,mint,2.6989,,,,,,6144d595272a4e5174447ab5,614815122c2a08c24a3d4e01,2021-09-19_23h59.35.974,Colour_Association_Experimentv1,2020.2.10,Win32,60,614813970c3839c5bfc24e99,,,,,1,0,1,0,1,,,,,,,
,,,,,,,,frog,16.1896,,,,,,6144d595272a4e5174447ab5,614815122c2a08c24a3d4e01,2021-09-19_23h59.35.974,Colour_Association_Experimentv1,2020.2.10,Win32,60,614813970c3839c5bfc24e99,,,,,2,0,2,0,1,,,,,,,
,,,,,,,,pond,26.4431,,,,,,6144d595272a4e5174447ab5,614815122c2a08c24a3d4e01,2021-09-19_23h59.35.974,Colour_Association_Experimentv1,2020.2.10,Win32,60,614813970c3839c5bfc24e99,,,,,3,0,3,0,1,,,,,,,
,,,,,,,,fresh,17.7054,,,,,,6144d595272a4e5174447ab5,614815122c2a08c24a3d4e01,2021-09-19_23h59.35.974,Colour_Association_Experimentv1,2020.2.10,Win32,60,614813970c3839c5bfc24e99,,,,,4,0,4,0,1,,,,,,,
,,,,,,,,plant,46.435,,,,,,6144d595272a4e5174447ab5,614815122c2a08c24a3d4e01,2021-09-19_23h59.35.974,Colour_Association_Experimentv1,2020.2.10,Win32,60,614813970c3839c5bfc24e99,,,,,5,0,5,0,1,,,,,,,
,,,,,,,,,,,,,,,6144d595272a4e5174447ab5,614815122c2a08c24a3d4e01,2021-09-19_23h59.35.974,Colour_Association_Experimentv1,2020.2.10,Win32,60,614813970c3839c5bfc24e99,,,5,FF,,,,,,space,3.7828,0,3,3,4,1
,,,,,,,, ocean,6.0633,,,,,,6144d595272a4e5174447ab5,614815122c2a08c24a3d4e01,2021-09-19_23h59.35.974,Colour_Association_Experimentv1,2020.2.10,Win32,60,614813970c3839c5bfc24e99,,,7,FF,0,0,0,0,1,,,,,,,
,,,,,,,,whale,40.7494,,,,,,6144d595272a4e5174447ab5,614815122c2a08c24a3d4e01,2021-09-19_23h59.35.974,Colour_Association_Experimentv1,2020.2.10,Win32,60,614813970c3839c5bfc24e99,,,,,1,0,1,0,1,,,,,,,
,,,,,,,,dark ,23.4281,,,,,,6144d595272a4e5174447ab5,614815122c2a08c24a3d4e01,2021-09-19_23h59.35.974,Colour_Association_Experimentv1,2020.2.10,Win32,60,614813970c3839c5bfc24e99,,,,,2,0,2,0,1,,,,,,,
,,,,,,,,seriousness,45.9992,,,,,,6144d595272a4e5174447ab5,614815122c2a08c24a3d4e01,2021-09-19_23h59.35.974,Colour_Association_Experimentv1,2020.2.10,Win32,60,614813970c3839c5bfc24e99,,,,,3,0,3,0,1,,,,,,,
,,,,,,,,deep,9.7191,,,,,,6144d595272a4e5174447ab5,614815122c2a08c24a3d4e01,2021-09-19_23h59.35.974,Colour_Association_Experimentv1,2020.2.10,Win32,60,614813970c3839c5bfc24e99,,,,,4,0,4,0,1,,,,,,,
,,,,,,,,fear,8.768,,,,,,6144d595272a4e5174447ab5,614815122c2a08c24a3d4e01,2021-09-19_23h59.35.974,Colour_Association_Experimentv1,2020.2.10,Win32,60,614813970c3839c5bfc24e99,,,,,5,0,5,0,1,,,,,,,
,,,,,,,,  ,12.2028,,,,,,6144d595272a4e5174447ab5,614815122c2a08c24a3d4e01,2021-09-19_23h59.35.974,Colour_Association_Experimentv1,2020.2.10,Win32,60,614813970c3839c5bfc24e99,,,,,6,0,6,0,1,,,,,,,
,,,,,,,,,,,,,,,6144d595272a4e5174447ab5,614815122c2a08c24a3d4e01,2021-09-19_23h59.35.974,Colour_Association_Experimentv1,2020.2.10,Win32,60,614813970c3839c5bfc24e99,,,7,FF,,,,,,space,1.5412,0,4,4,6,1
,,,,,,,,trust ,29.3905,,,,,,6144d595272a4e5174447ab5,614815122c2a08c24a3d4e01,2021-09-19_23h59.35.974,Colour_Association_Experimentv1,2020.2.10,Win32,60,614813970c3839c5bfc24e99,,,6,PF,0,0,0,0,1,,,,,,,
,,,,,,,,fish ,4.6331,,,,,,6144d595272a4e5174447ab5,614815122c2a08c24a3d4e01,2021-09-19_23h59.35.974,Colour_Association_Experimentv1,2020.2.10,Win32,60,614813970c3839c5bfc24e99,,,,,1,0,1,0,1,,,,,,,
,,,,,,,,sky,7.4509,,,,,,6144d595272a4e5174447ab5,614815122c2a08c24a3d4e01,2021-09-19_23h59.35.974,Colour_Association_Experimentv1,2020.2.10,Win32,60,614813970c3839c5bfc24e99,,,,,2,0,2,0,1,,,,,,,
,,,,,,,,serenity,40.4992,,,,,,6144d595272a4e5174447ab5,614815122c2a08c24a3d4e01,2021-09-19_23h59.35.974,Colour_Association_Experimentv1,2020.2.10,Win32,60,614813970c3839c5bfc24e99,,,,,3,0,3,0,1,,,,,,,
,,,,,,,,,1.4649,,,,,,6144d595272a4e5174447ab5,614815122c2a08c24a3d4e01,2021-09-19_23h59.35.974,Colour_Association_Experimentv1,2020.2.10,Win32,60,614813970c3839c5bfc24e99,,,,,4,0,4,0,1,,,,,,,
,,,,,,,,,,,,,,,6144d595272a4e5174447ab5,614815122c2a08c24a3d4e01,2021-09-19_23h59.35.974,Colour_Association_Experimentv1,2020.2.10,Win32,60,614813970c3839c5bfc24e99,,,6,PF,,,,,,space,1.0958,0,5,5,5,1
,,,,,,,, grapes,11.1021,,,,,,6144d595272a4e5174447ab5,614815122c2a08c24a3d4e01,2021-09-19_23h59.35.974,Colour_Association_Experimentv1,2020.2.10,Win32,60,614813970c3839c5bfc24e99,,,8,PF,0,0,0,0,1,,,,,,,
,,,,,,,,magic,3.5188,,,,,,6144d595272a4e5174447ab5,614815122c2a08c24a3d4e01,2021-09-19_23h59.35.974,Colour_Association_Experimentv1,2020.2.10,Win32,60,614813970c3839c5bfc24e99,,,,,1,0,1,0,1,,,,,,,
,,,,,,,,mysterious,54.8567,,,,,,6144d595272a4e5174447ab5,614815122c2a08c24a3d4e01,2021-09-19_23h59.35.974,Colour_Association_Experimentv1,2020.2.10,Win32,60,614813970c3839c5bfc24e99,,,,,2,0,2,0,1,,,,,,,
,,,,,,,,,2.0966,,,,,,6144d595272a4e5174447ab5,614815122c2a08c24a3d4e01,2021-09-19_23h59.35.974,Colour_Association_Experimentv1,2020.2.10,Win32,60,614813970c3839c5bfc24e99,,,,,3,0,3,0,1,,,,,,,
,,,,,,,,,,,,,,,6144d595272a4e5174447ab5,614815122c2a08c24a3d4e01,2021-09-19_23h59.35.974,Colour_Association_Experimentv1,2020.2.10,Win32,60,614813970c3839c5bfc24e99,,,8,PF,,,,,,space,0.3619,0,6,6,7,1
,,,,,,,, gaudy,36.9785,,,,,,6144d595272a4e5174447ab5,614815122c2a08c24a3d4e01,2021-09-19_23h59.35.974,Colour_Association_Experimentv1,2020.2.10,Win32,60,614813970c3839c5bfc24e99,,,4,PF,0,0,0,0,1,,,,,,,
,,,,,,,,neon,3.5838,,,,,,6144d595272a4e5174447ab5,614815122c2a08c24a3d4e01,2021-09-19_23h59.35.974,Colour_Association_Experimentv1,2020.2.10,Win32,60,614813970c3839c5bfc24e99,,,,,1,0,1,0,1,,,,,,,
,,,,,,,,toxic,4.8678,,,,,,6144d595272a4e5174447ab5,614815122c2a08c24a3d4e01,2021-09-19_23h59.35.974,Colour_Association_Experimentv1,2020.2.10,Win32,60,614813970c3839c5bfc24e99,,,,,2,0,2,0,1,,,,,,,
,,,,,,,,,4.1809,,,,,,6144d595272a4e5174447ab5,614815122c2a08c24a3d4e01,2021-09-19_23h59.35.974,Colour_Association_Experimentv1,2020.2.10,Win32,60,614813970c3839c5bfc24e99,,,,,3,0,3,0,1,,,,,,,
,,,,,,,,,,,,,,,6144d595272a4e5174447ab5,614815122c2a08c24a3d4e01,2021-09-19_23h59.35.974,Colour_Association_Experimentv1,2020.2.10,Win32,60,614813970c3839c5bfc24e99,,,4,PF,,,,,,space,1.4576,0,7,7,3,1
,,,,,,,, vomit ,8.3505,,,,,,6144d595272a4e5174447ab5,614815122c2a08c24a3d4e01,2021-09-19_23h59.35.974,Colour_Association_Experimentv1,2020.2.10,Win32,60,614813970c3839c5bfc24e99,,,3,FF,0,0,0,0,1,,,,,,,
,,,,,,,,olive,2.9299,,,,,,6144d595272a4e5174447ab5,614815122c2a08c24a3d4e01,2021-09-19_23h59.35.974,Colour_Association_Experimentv1,2020.2.10,Win32,60,614813970c3839c5bfc24e99,,,,,1,0,1,0,1,,,,,,,
,,,,,,,,disgust,39.7696,,,,,,6144d595272a4e5174447ab5,614815122c2a08c24a3d4e01,2021-09-19_23h59.35.974,Colour_Association_Experimentv1,2020.2.10,Win32,60,614813970c3839c5bfc24e99,,,,,2,0,2,0,1,,,,,,,
,,,,,,,,,1.429,,,,,,6144d595272a4e5174447ab5,614815122c2a08c24a3d4e01,2021-09-19_23h59.35.974,Colour_Association_Experimentv1,2020.2.10,Win32,60,614813970c3839c5bfc24e99,,,,,3,0,3,0,1,,,,,,,
,,,,,,,,,,,,,,,6144d595272a4e5174447ab5,614815122c2a08c24a3d4e01,2021-09-19_23h59.35.974,Colour_Association_Experimentv1,2020.2.10,Win32,60,614813970c3839c5bfc24e99,,,3,FF,,,,,,,,0,8,8,2,1
