key_resp.keys,key_resp.rt,key_resp_2.keys,key_resp_2.rt,key_resp_3.keys,key_resp_3.rt,key_resp_4.keys,key_resp_4.rt,inputText,rt,pracassoc.thisRepN,pracassoc.thisTrialN,pracassoc.thisN,pracassoc.thisIndex,pracassoc.ran,participant,session,date,expName,psychopyVersion,OS,frameRate,study_id,key_resp_6.keys,key_resp_6.rt,Colour1,Ecc,assocresponse.thisRepN,assocresponse.thisTrialN,assocresponse.thisN,assocresponse.thisIndex,assocresponse.ran,key_resp_5.keys,key_resp_5.rt,trials.thisRepN,trials.thisTrialN,trials.thisN,trials.thisIndex,trials.ran
space,2.138800001,space,13.33513,space,6.11595,space,12.710225, sunshine,5.74542,0,0,0,0,1,61456e4580dd08343ca3f422,614817b12b3cec1ed2055059,2021-09-20_00h10.26.554,Colour_Association_Experimentv1,2020.2.10,Win32,60,614813970c3839c5bfc24e99,,,,,,,,,,,,,,,,
,,,,,,,,yellow,3.31381,1,0,1,0,1,61456e4580dd08343ca3f422,614817b12b3cec1ed2055059,2021-09-20_00h10.26.554,Colour_Association_Experimentv1,2020.2.10,Win32,60,614813970c3839c5bfc24e99,,,,,,,,,,,,,,,,
,,,,,,,,bright,1.5995,2,0,2,0,1,61456e4580dd08343ca3f422,614817b12b3cec1ed2055059,2021-09-20_00h10.26.554,Colour_Association_Experimentv1,2020.2.10,Win32,60,614813970c3839c5bfc24e99,,,,,,,,,,,,,,,,
,,,,,,,,mom,2.01615,3,0,3,0,1,61456e4580dd08343ca3f422,614817b12b3cec1ed2055059,2021-09-20_00h10.26.554,Colour_Association_Experimentv1,2020.2.10,Win32,60,614813970c3839c5bfc24e99,,,,,,,,,,,,,,,,
,,,,,,,,sunflower,2.082869999,4,0,4,0,1,61456e4580dd08343ca3f422,614817b12b3cec1ed2055059,2021-09-20_00h10.26.554,Colour_Association_Experimentv1,2020.2.10,Win32,60,614813970c3839c5bfc24e99,,,,,,,,,,,,,,,,
,,,,,,,,golden,1.482829999,5,0,5,0,1,61456e4580dd08343ca3f422,614817b12b3cec1ed2055059,2021-09-20_00h10.26.554,Colour_Association_Experimentv1,2020.2.10,Win32,60,614813970c3839c5bfc24e99,,,,,,,,,,,,,,,,
,,,,,,,,  ,15.31849,6,0,6,0,1,61456e4580dd08343ca3f422,614817b12b3cec1ed2055059,2021-09-20_00h10.26.554,Colour_Association_Experimentv1,2020.2.10,Win32,60,614813970c3839c5bfc24e99,,,,,,,,,,,,,,,,
,,,,,,,, fire,2.479039999,,,,,,61456e4580dd08343ca3f422,614817b12b3cec1ed2055059,2021-09-20_00h10.26.554,Colour_Association_Experimentv1,2020.2.10,Win32,60,614813970c3839c5bfc24e99,space,0.637004999,1,FF,0,0,0,0,1,,,,,,,
,,,,,,,,firetruck,2.749735,,,,,,61456e4580dd08343ca3f422,614817b12b3cec1ed2055059,2021-09-20_00h10.26.554,Colour_Association_Experimentv1,2020.2.10,Win32,60,614813970c3839c5bfc24e99,,,,,1,0,1,0,1,,,,,,,
,,,,,,,,ketchup,2.531785,,,,,,61456e4580dd08343ca3f422,614817b12b3cec1ed2055059,2021-09-20_00h10.26.554,Colour_Association_Experimentv1,2020.2.10,Win32,60,614813970c3839c5bfc24e99,,,,,2,0,2,0,1,,,,,,,
,,,,,,,,rose,6.383284999,,,,,,61456e4580dd08343ca3f422,614817b12b3cec1ed2055059,2021-09-20_00h10.26.554,Colour_Association_Experimentv1,2020.2.10,Win32,60,614813970c3839c5bfc24e99,,,,,3,0,3,0,1,,,,,,,
,,,,,,,,,6.983024999,,,,,,61456e4580dd08343ca3f422,614817b12b3cec1ed2055059,2021-09-20_00h10.26.554,Colour_Association_Experimentv1,2020.2.10,Win32,60,614813970c3839c5bfc24e99,,,,,4,0,4,0,1,,,,,,,
,,,,,,,,,,,,,,,61456e4580dd08343ca3f422,614817b12b3cec1ed2055059,2021-09-20_00h10.26.554,Colour_Association_Experimentv1,2020.2.10,Win32,60,614813970c3839c5bfc24e99,,,1,FF,,,,,,space,0.743690001,0,0,0,0,1
,,,,,,,, ocean,3.11124,,,,,,61456e4580dd08343ca3f422,614817b12b3cec1ed2055059,2021-09-20_00h10.26.554,Colour_Association_Experimentv1,2020.2.10,Win32,60,614813970c3839c5bfc24e99,,,5,FF,0,0,0,0,1,,,,,,,
,,,,,,,,tiffany,1.997585,,,,,,61456e4580dd08343ca3f422,614817b12b3cec1ed2055059,2021-09-20_00h10.26.554,Colour_Association_Experimentv1,2020.2.10,Win32,60,614813970c3839c5bfc24e99,,,,,1,0,1,0,1,,,,,,,
,,,,,,,,sweater,5.166315001,,,,,,61456e4580dd08343ca3f422,614817b12b3cec1ed2055059,2021-09-20_00h10.26.554,Colour_Association_Experimentv1,2020.2.10,Win32,60,614813970c3839c5bfc24e99,,,,,2,0,2,0,1,,,,,,,
,,,,,,,,flip flops,4.64835,,,,,,61456e4580dd08343ca3f422,614817b12b3cec1ed2055059,2021-09-20_00h10.26.554,Colour_Association_Experimentv1,2020.2.10,Win32,60,614813970c3839c5bfc24e99,,,,,3,0,3,0,1,,,,,,,
,,,,,,,,seashell,4.58293,,,,,,61456e4580dd08343ca3f422,614817b12b3cec1ed2055059,2021-09-20_00h10.26.554,Colour_Association_Experimentv1,2020.2.10,Win32,60,614813970c3839c5bfc24e99,,,,,4,0,4,0,1,,,,,,,
,,,,,,,,bird egg,5.49893,,,,,,61456e4580dd08343ca3f422,614817b12b3cec1ed2055059,2021-09-20_00h10.26.554,Colour_Association_Experimentv1,2020.2.10,Win32,60,614813970c3839c5bfc24e99,,,,,5,0,5,0,1,,,,,,,
,,,,,,,,,1.699139999,,,,,,61456e4580dd08343ca3f422,614817b12b3cec1ed2055059,2021-09-20_00h10.26.554,Colour_Association_Experimentv1,2020.2.10,Win32,60,614813970c3839c5bfc24e99,,,,,6,0,6,0,1,,,,,,,
,,,,,,,,,,,,,,,61456e4580dd08343ca3f422,614817b12b3cec1ed2055059,2021-09-20_00h10.26.554,Colour_Association_Experimentv1,2020.2.10,Win32,60,614813970c3839c5bfc24e99,,,5,FF,,,,,,space,2.296389999,0,1,1,4,1
,,,,,,,, hannah montana,10.213545,,,,,,61456e4580dd08343ca3f422,614817b12b3cec1ed2055059,2021-09-20_00h10.26.554,Colour_Association_Experimentv1,2020.2.10,Win32,60,614813970c3839c5bfc24e99,,,8,PF,0,0,0,0,1,,,,,,,
,,,,,,,,jacket,1.71497,,,,,,61456e4580dd08343ca3f422,614817b12b3cec1ed2055059,2021-09-20_00h10.26.554,Colour_Association_Experimentv1,2020.2.10,Win32,60,614813970c3839c5bfc24e99,,,,,1,0,1,0,1,,,,,,,
,,,,,,,,bright,7.066955,,,,,,61456e4580dd08343ca3f422,614817b12b3cec1ed2055059,2021-09-20_00h10.26.554,Colour_Association_Experimentv1,2020.2.10,Win32,60,614813970c3839c5bfc24e99,,,,,2,0,2,0,1,,,,,,,
,,,,,,,,luxary,7.682755001,,,,,,61456e4580dd08343ca3f422,614817b12b3cec1ed2055059,2021-09-20_00h10.26.554,Colour_Association_Experimentv1,2020.2.10,Win32,60,614813970c3839c5bfc24e99,,,,,3,0,3,0,1,,,,,,,
,,,,,,,, ,3.61497,,,,,,61456e4580dd08343ca3f422,614817b12b3cec1ed2055059,2021-09-20_00h10.26.554,Colour_Association_Experimentv1,2020.2.10,Win32,60,614813970c3839c5bfc24e99,,,,,4,0,4,0,1,,,,,,,
,,,,,,,,,,,,,,,61456e4580dd08343ca3f422,614817b12b3cec1ed2055059,2021-09-20_00h10.26.554,Colour_Association_Experimentv1,2020.2.10,Win32,60,614813970c3839c5bfc24e99,,,8,PF,,,,,,space,2.029564999,0,2,2,7,1
,,,,,,,, lipstick,3.533365,,,,,,61456e4580dd08343ca3f422,614817b12b3cec1ed2055059,2021-09-20_00h10.26.554,Colour_Association_Experimentv1,2020.2.10,Win32,60,614813970c3839c5bfc24e99,,,9,FF,0,0,0,0,1,,,,,,,
,,,,,,,,barbie,1.978455,,,,,,61456e4580dd08343ca3f422,614817b12b3cec1ed2055059,2021-09-20_00h10.26.554,Colour_Association_Experimentv1,2020.2.10,Win32,60,614813970c3839c5bfc24e99,,,,,1,0,1,0,1,,,,,,,
,,,,,,,,heels,3.666165,,,,,,61456e4580dd08343ca3f422,614817b12b3cec1ed2055059,2021-09-20_00h10.26.554,Colour_Association_Experimentv1,2020.2.10,Win32,60,614813970c3839c5bfc24e99,,,,,2,0,2,0,1,,,,,,,
,,,,,,,,kiss,5.93251,,,,,,61456e4580dd08343ca3f422,614817b12b3cec1ed2055059,2021-09-20_00h10.26.554,Colour_Association_Experimentv1,2020.2.10,Win32,60,614813970c3839c5bfc24e99,,,,,3,0,3,0,1,,,,,,,
,,,,,,,,love,1.314345,,,,,,61456e4580dd08343ca3f422,614817b12b3cec1ed2055059,2021-09-20_00h10.26.554,Colour_Association_Experimentv1,2020.2.10,Win32,60,614813970c3839c5bfc24e99,,,,,4,0,4,0,1,,,,,,,
,,,,,,,,romance,2.68307,,,,,,61456e4580dd08343ca3f422,614817b12b3cec1ed2055059,2021-09-20_00h10.26.554,Colour_Association_Experimentv1,2020.2.10,Win32,60,614813970c3839c5bfc24e99,,,,,5,0,5,0,1,,,,,,,
,,,,,,,,,4.782314999,,,,,,61456e4580dd08343ca3f422,614817b12b3cec1ed2055059,2021-09-20_00h10.26.554,Colour_Association_Experimentv1,2020.2.10,Win32,60,614813970c3839c5bfc24e99,,,,,6,0,6,0,1,,,,,,,
,,,,,,,,,,,,,,,61456e4580dd08343ca3f422,614817b12b3cec1ed2055059,2021-09-20_00h10.26.554,Colour_Association_Experimentv1,2020.2.10,Win32,60,614813970c3839c5bfc24e99,,,9,FF,,,,,,space,2.318790002,0,3,3,8,1
,,,,,,,, gatorade,5.129464999,,,,,,61456e4580dd08343ca3f422,614817b12b3cec1ed2055059,2021-09-20_00h10.26.554,Colour_Association_Experimentv1,2020.2.10,Win32,60,614813970c3839c5bfc24e99,,,3,FF,0,0,0,0,1,,,,,,,
,,,,,,,,lime,2.732015001,,,,,,61456e4580dd08343ca3f422,614817b12b3cec1ed2055059,2021-09-20_00h10.26.554,Colour_Association_Experimentv1,2020.2.10,Win32,60,614813970c3839c5bfc24e99,,,,,1,0,1,0,1,,,,,,,
,,,,,,,,sunglass reflection,15.61744,,,,,,61456e4580dd08343ca3f422,614817b12b3cec1ed2055059,2021-09-20_00h10.26.554,Colour_Association_Experimentv1,2020.2.10,Win32,60,614813970c3839c5bfc24e99,,,,,2,0,2,0,1,,,,,,,
,,,,,,,,brother,8.633625001,,,,,,61456e4580dd08343ca3f422,614817b12b3cec1ed2055059,2021-09-20_00h10.26.554,Colour_Association_Experimentv1,2020.2.10,Win32,60,614813970c3839c5bfc24e99,,,,,3,0,3,0,1,,,,,,,
,,,,,,,,jersey,2.498724999,,,,,,61456e4580dd08343ca3f422,614817b12b3cec1ed2055059,2021-09-20_00h10.26.554,Colour_Association_Experimentv1,2020.2.10,Win32,60,614813970c3839c5bfc24e99,,,,,4,0,4,0,1,,,,,,,
,,,,,,,,,2.116294999,,,,,,61456e4580dd08343ca3f422,614817b12b3cec1ed2055059,2021-09-20_00h10.26.554,Colour_Association_Experimentv1,2020.2.10,Win32,60,614813970c3839c5bfc24e99,,,,,5,0,5,0,1,,,,,,,
,,,,,,,,,,,,,,,61456e4580dd08343ca3f422,614817b12b3cec1ed2055059,2021-09-20_00h10.26.554,Colour_Association_Experimentv1,2020.2.10,Win32,60,614813970c3839c5bfc24e99,,,3,FF,,,,,,space,3.39318,0,4,4,2,1
,,,,,,,, mellow,3.21009,,,,,,61456e4580dd08343ca3f422,614817b12b3cec1ed2055059,2021-09-20_00h10.26.554,Colour_Association_Experimentv1,2020.2.10,Win32,60,614813970c3839c5bfc24e99,,,6,PF,0,0,0,0,1,,,,,,,
,,,,,,,,night,3.231515,,,,,,61456e4580dd08343ca3f422,614817b12b3cec1ed2055059,2021-09-20_00h10.26.554,Colour_Association_Experimentv1,2020.2.10,Win32,60,614813970c3839c5bfc24e99,,,,,1,0,1,0,1,,,,,,,
,,,,,,,,wind,3.032985,,,,,,61456e4580dd08343ca3f422,614817b12b3cec1ed2055059,2021-09-20_00h10.26.554,Colour_Association_Experimentv1,2020.2.10,Win32,60,614813970c3839c5bfc24e99,,,,,2,0,2,0,1,,,,,,,
,,,,,,,,lake,3.047724999,,,,,,61456e4580dd08343ca3f422,614817b12b3cec1ed2055059,2021-09-20_00h10.26.554,Colour_Association_Experimentv1,2020.2.10,Win32,60,614813970c3839c5bfc24e99,,,,,3,0,3,0,1,,,,,,,
,,,,,,,,peace,4.632575,,,,,,61456e4580dd08343ca3f422,614817b12b3cec1ed2055059,2021-09-20_00h10.26.554,Colour_Association_Experimentv1,2020.2.10,Win32,60,614813970c3839c5bfc24e99,,,,,4,0,4,0,1,,,,,,,
,,,,,,,,calm,0.98123,,,,,,61456e4580dd08343ca3f422,614817b12b3cec1ed2055059,2021-09-20_00h10.26.554,Colour_Association_Experimentv1,2020.2.10,Win32,60,614813970c3839c5bfc24e99,,,,,5,0,5,0,1,,,,,,,
,,,,,,,,warmth,11.285085,,,,,,61456e4580dd08343ca3f422,614817b12b3cec1ed2055059,2021-09-20_00h10.26.554,Colour_Association_Experimentv1,2020.2.10,Win32,60,614813970c3839c5bfc24e99,,,,,6,0,6,0,1,,,,,,,
,,,,,,,,,5.64899,,,,,,61456e4580dd08343ca3f422,614817b12b3cec1ed2055059,2021-09-20_00h10.26.554,Colour_Association_Experimentv1,2020.2.10,Win32,60,614813970c3839c5bfc24e99,,,,,7,0,7,0,1,,,,,,,
,,,,,,,,,,,,,,,61456e4580dd08343ca3f422,614817b12b3cec1ed2055059,2021-09-20_00h10.26.554,Colour_Association_Experimentv1,2020.2.10,Win32,60,614813970c3839c5bfc24e99,,,6,PF,,,,,,space,2.234755,0,5,5,5,1
,,,,,,,, deep,3.397599999,,,,,,61456e4580dd08343ca3f422,614817b12b3cec1ed2055059,2021-09-20_00h10.26.554,Colour_Association_Experimentv1,2020.2.10,Win32,60,614813970c3839c5bfc24e99,,,7,FF,0,0,0,0,1,,,,,,,
,,,,,,,,ocean,1.54862,,,,,,61456e4580dd08343ca3f422,614817b12b3cec1ed2055059,2021-09-20_00h10.26.554,Colour_Association_Experimentv1,2020.2.10,Win32,60,614813970c3839c5bfc24e99,,,,,1,0,1,0,1,,,,,,,
,,,,,,,,sadness,13.15141,,,,,,61456e4580dd08343ca3f422,614817b12b3cec1ed2055059,2021-09-20_00h10.26.554,Colour_Association_Experimentv1,2020.2.10,Win32,60,614813970c3839c5bfc24e99,,,,,2,0,2,0,1,,,,,,,
,,,,,,,,rain,2.615050001,,,,,,61456e4580dd08343ca3f422,614817b12b3cec1ed2055059,2021-09-20_00h10.26.554,Colour_Association_Experimentv1,2020.2.10,Win32,60,614813970c3839c5bfc24e99,,,,,3,0,3,0,1,,,,,,,
,,,,,,,,sky,6.683939999,,,,,,61456e4580dd08343ca3f422,614817b12b3cec1ed2055059,2021-09-20_00h10.26.554,Colour_Association_Experimentv1,2020.2.10,Win32,60,614813970c3839c5bfc24e99,,,,,4,0,4,0,1,,,,,,,
,,,,,,,,,9.232425001,,,,,,61456e4580dd08343ca3f422,614817b12b3cec1ed2055059,2021-09-20_00h10.26.554,Colour_Association_Experimentv1,2020.2.10,Win32,60,614813970c3839c5bfc24e99,,,,,5,0,5,0,1,,,,,,,
,,,,,,,,,,,,,,,61456e4580dd08343ca3f422,614817b12b3cec1ed2055059,2021-09-20_00h10.26.554,Colour_Association_Experimentv1,2020.2.10,Win32,60,614813970c3839c5bfc24e99,,,7,FF,,,,,,space,1.297350001,0,6,6,6,1
,,,,,,,, mother,3.29723,,,,,,61456e4580dd08343ca3f422,614817b12b3cec1ed2055059,2021-09-20_00h10.26.554,Colour_Association_Experimentv1,2020.2.10,Win32,60,614813970c3839c5bfc24e99,,,2,PF,0,0,0,0,1,,,,,,,
,,,,,,,,flowers,2.18224,,,,,,61456e4580dd08343ca3f422,614817b12b3cec1ed2055059,2021-09-20_00h10.26.554,Colour_Association_Experimentv1,2020.2.10,Win32,60,614813970c3839c5bfc24e99,,,,,1,0,1,0,1,,,,,,,
,,,,,,,,golden,2.615395,,,,,,61456e4580dd08343ca3f422,614817b12b3cec1ed2055059,2021-09-20_00h10.26.554,Colour_Association_Experimentv1,2020.2.10,Win32,60,614813970c3839c5bfc24e99,,,,,2,0,2,0,1,,,,,,,
,,,,,,,,sunshine,6.898724999,,,,,,61456e4580dd08343ca3f422,614817b12b3cec1ed2055059,2021-09-20_00h10.26.554,Colour_Association_Experimentv1,2020.2.10,Win32,60,614813970c3839c5bfc24e99,,,,,3,0,3,0,1,,,,,,,
,,,,,,,,summer,4.614975,,,,,,61456e4580dd08343ca3f422,614817b12b3cec1ed2055059,2021-09-20_00h10.26.554,Colour_Association_Experimentv1,2020.2.10,Win32,60,614813970c3839c5bfc24e99,,,,,4,0,4,0,1,,,,,,,
,,,,,,,,lemon,3.381695,,,,,,61456e4580dd08343ca3f422,614817b12b3cec1ed2055059,2021-09-20_00h10.26.554,Colour_Association_Experimentv1,2020.2.10,Win32,60,614813970c3839c5bfc24e99,,,,,5,0,5,0,1,,,,,,,
,,,,,,,,nail polish,7.866795,,,,,,61456e4580dd08343ca3f422,614817b12b3cec1ed2055059,2021-09-20_00h10.26.554,Colour_Association_Experimentv1,2020.2.10,Win32,60,614813970c3839c5bfc24e99,,,,,6,0,6,0,1,,,,,,,
,,,,,,,,happy,8.815549999,,,,,,61456e4580dd08343ca3f422,614817b12b3cec1ed2055059,2021-09-20_00h10.26.554,Colour_Association_Experimentv1,2020.2.10,Win32,60,614813970c3839c5bfc24e99,,,,,7,0,7,0,1,,,,,,,
,,,,,,,,,2.348065,,,,,,61456e4580dd08343ca3f422,614817b12b3cec1ed2055059,2021-09-20_00h10.26.554,Colour_Association_Experimentv1,2020.2.10,Win32,60,614813970c3839c5bfc24e99,,,,,8,0,8,0,1,,,,,,,
,,,,,,,,,,,,,,,61456e4580dd08343ca3f422,614817b12b3cec1ed2055059,2021-09-20_00h10.26.554,Colour_Association_Experimentv1,2020.2.10,Win32,60,614813970c3839c5bfc24e99,,,2,PF,,,,,,space,1.800185001,0,7,7,1,1
,,,,,,,, bright,2.82945,,,,,,61456e4580dd08343ca3f422,614817b12b3cec1ed2055059,2021-09-20_00h10.26.554,Colour_Association_Experimentv1,2020.2.10,Win32,60,614813970c3839c5bfc24e99,,,4,PF,0,0,0,0,1,,,,,,,
,,,,,,,,gatorade,1.749540001,,,,,,61456e4580dd08343ca3f422,614817b12b3cec1ed2055059,2021-09-20_00h10.26.554,Colour_Association_Experimentv1,2020.2.10,Win32,60,614813970c3839c5bfc24e99,,,,,1,0,1,0,1,,,,,,,
,,,,,,,,brother,1.649615001,,,,,,61456e4580dd08343ca3f422,614817b12b3cec1ed2055059,2021-09-20_00h10.26.554,Colour_Association_Experimentv1,2020.2.10,Win32,60,614813970c3839c5bfc24e99,,,,,2,0,2,0,1,,,,,,,
,,,,,,,,lime,3.066365,,,,,,61456e4580dd08343ca3f422,614817b12b3cec1ed2055059,2021-09-20_00h10.26.554,Colour_Association_Experimentv1,2020.2.10,Win32,60,614813970c3839c5bfc24e99,,,,,3,0,3,0,1,,,,,,,
,,,,,,,,,3.14989,,,,,,61456e4580dd08343ca3f422,614817b12b3cec1ed2055059,2021-09-20_00h10.26.554,Colour_Association_Experimentv1,2020.2.10,Win32,60,614813970c3839c5bfc24e99,,,,,4,0,4,0,1,,,,,,,
,,,,,,,,,,,,,,,61456e4580dd08343ca3f422,614817b12b3cec1ed2055059,2021-09-20_00h10.26.554,Colour_Association_Experimentv1,2020.2.10,Win32,60,614813970c3839c5bfc24e99,,,4,PF,,,,,,,,0,8,8,3,1
